Wavenumber,Intensity
650.4205,0.109787
652.2841,0.110104
654.1478,0.109115
656.0115,0.107437
657.8751,0.106096
659.7388,0.107484
661.6025,0.108573
663.4661,0.109051
665.3298,0.109733
667.1935,0.109983
669.0571,0.109891
670.9208,0.109217
672.7845,0.108691
674.6481,0.107876
676.5118,0.106130
678.3755,0.103185
680.2392,0.100932
682.1028,0.100547
683.9665,0.099804
685.8302,0.097901
687.6938,0.096150
689.5575,0.094789
691.4212,0.092919
693.2848,0.090945
695.1485,0.089611
697.0122,0.089018
698.8758,0.088914
700.7395,0.088338
702.6032,0.088019
704.4669,0.088796
706.3305,0.089682
708.1942,0.090535
710.0579,0.091806
711.9215,0.093648
713.7852,0.094934
715.6489,0.094615
717.5125,0.094352
719.3762,0.094727
721.2399,0.095076
723.1035,0.095239
724.9672,0.095540
726.8309,0.095568
728.6945,0.095517
730.5582,0.095346
732.4219,0.094987
734.2856,0.094640
736.1492,0.094293
738.0129,0.094268
739.8766,0.094528
741.7402,0.094816
743.6039,0.095080
745.4676,0.094919
747.3312,0.094431
749.1949,0.094515
751.0586,0.094867
752.9222,0.094949
754.7859,0.094809
756.6496,0.094746
758.5132,0.094870
760.3769,0.094653
762.2406,0.094372
764.1043,0.093905
765.9679,0.093195
767.8316,0.092550
769.6953,0.092021
771.5589,0.091390
773.4226,0.090923
775.2863,0.090752
777.1499,0.090275
779.0136,0.090027
780.8773,0.090047
782.7409,0.090236
784.6046,0.090730
786.4683,0.091032
788.3320,0.091118
790.1956,0.091056
792.0593,0.090843
793.9230,0.090972
795.7866,0.091239
797.6503,0.091448
799.5140,0.091859
801.3776,0.092381
803.2413,0.092965
805.1050,0.093382
806.9686,0.093694
808.8323,0.094563
810.6960,0.095487
812.5596,0.095918
814.4233,0.096625
816.2870,0.097376
818.1507,0.097580
820.0143,0.097792
821.8780,0.098008
823.7417,0.097980
825.6053,0.097984
827.4690,0.098414
829.3327,0.099013
831.1963,0.099711
833.0600,0.100728
834.9237,0.102147
836.7873,0.103820
838.6510,0.105325
840.5147,0.106914
842.3784,0.109027
844.2420,0.111165
846.1057,0.113215
847.9694,0.115165
849.8330,0.116896
851.6967,0.118718
853.5604,0.120725
855.4240,0.122647
857.2877,0.124692
859.1514,0.126979
861.0150,0.129327
862.8787,0.131538
864.7424,0.133901
866.6060,0.136419
868.4697,0.138840
870.3334,0.141284
872.1971,0.143317
874.0607,0.144402
875.9244,0.144908
877.7881,0.145150
879.6517,0.145081
881.5154,0.145170
883.3791,0.145609
885.2427,0.145931
887.1064,0.146650
888.9701,0.148498
890.8337,0.151075
892.6974,0.153601
894.5611,0.156009
896.4247,0.158615
898.2884,0.161403
900.1521,0.164208
902.0158,0.166636
903.8794,0.168845
905.7431,0.171415
907.6068,0.174027
909.4704,0.176308
911.3341,0.178421
913.1978,0.180355
915.0614,0.182204
916.9251,0.184139
918.7888,0.186022
920.6524,0.187830
922.5161,0.189471
924.3798,0.190944
926.2435,0.192685
928.1071,0.194484
929.9708,0.196148
931.8345,0.197974
933.6981,0.200112
935.5618,0.202503
937.4255,0.205057
939.2891,0.207576
941.1528,0.209877
943.0165,0.212039
944.8801,0.214004
946.7438,0.215608
948.6075,0.217011
950.4711,0.218164
952.3348,0.218919
954.1985,0.219254
956.0622,0.219110
957.9258,0.218596
959.7895,0.217863
961.6532,0.216888
963.5168,0.215930
965.3805,0.215121
967.2442,0.214282
969.1078,0.213413
970.9715,0.212672
972.8352,0.212131
974.6988,0.211685
976.5625,0.211309
978.4262,0.211006
980.2899,0.210583
982.1535,0.210014
984.0172,0.209411
985.8809,0.208590
987.7445,0.207352
989.6082,0.205865
991.4719,0.204211
993.3355,0.202171
995.1992,0.199617
997.0629,0.196968
998.9265,0.194317
1000.7902,0.191392
1002.6539,0.188454
1004.5175,0.185505
1006.3812,0.182282
1008.2449,0.178951
1010.1086,0.175585
1011.9722,0.172004
1013.8359,0.168294
1015.6996,0.164726
1017.5632,0.161144
1019.4269,0.157330
1021.2906,0.153497
1023.1542,0.149841
1025.0179,0.146325
1026.8816,0.142902
1028.7452,0.139508
1030.6089,0.136221
1032.4726,0.132999
1034.3362,0.129839
1036.1999,0.126832
1038.0636,0.123824
1039.9273,0.120900
1041.7909,0.118211
1043.6546,0.115546
1045.5183,0.112967
1047.3819,0.110614
1049.2456,0.108411
1051.1093,0.106245
1052.9729,0.104212
1054.8366,0.102418
1056.7003,0.100652
1058.5639,0.098872
1060.4276,0.097258
1062.2913,0.095807
1064.1550,0.094359
1066.0186,0.092800
1067.8823,0.091281
1069.7460,0.089821
1071.6096,0.088260
1073.4733,0.086577
1075.3370,0.084916
1077.2006,0.083341
1079.0643,0.081667
1080.9280,0.079988
1082.7916,0.078276
1084.6553,0.076431
1086.5190,0.074663
1088.3826,0.072965
1090.2463,0.071235
1092.1100,0.069480
1093.9737,0.067688
1095.8373,0.065866
1097.7010,0.063997
1099.5647,0.062234
1101.4283,0.060624
1103.2920,0.058920
1105.1557,0.057287
1107.0193,0.055740
1108.8830,0.054132
1110.7467,0.052607
1112.6103,0.051157
1114.4740,0.049667
1116.3377,0.048098
1118.2014,0.046699
1120.0650,0.045528
1121.9287,0.044357
1123.7924,0.043163
1125.6560,0.042074
1127.5197,0.041131
1129.3834,0.040205
1131.2470,0.039299
1133.1107,0.038511
1134.9744,0.037776
1136.8380,0.037002
1138.7017,0.036368
1140.5654,0.035828
1142.4290,0.035153
1144.2927,0.034530
1146.1564,0.034023
1148.0201,0.033526
1149.8837,0.033068
1151.7474,0.032571
1153.6111,0.032027
1155.4747,0.031413
1157.3384,0.030765
1159.2021,0.030158
1161.0657,0.029601
1162.9294,0.029016
1164.7931,0.028267
1166.6567,0.027505
1168.5204,0.026853
1170.3841,0.026076
1172.2477,0.025229
1174.1114,0.024491
1175.9751,0.023794
1177.8388,0.023108
1179.7024,0.022412
1181.5661,0.021754
1183.4298,0.021119
1185.2934,0.020404
1187.1571,0.019610
1189.0208,0.018877
1190.8844,0.018285
1192.7481,0.017660
1194.6118,0.017025
1196.4754,0.016568
1198.3391,0.016058
1200.2028,0.015505
1202.0665,0.015051
1203.9301,0.014558
1205.7938,0.014082
1207.6575,0.013677
1209.5211,0.013306
1211.3848,0.012972
1213.2485,0.012651
1215.1121,0.012452
1216.9758,0.012281
1218.8395,0.011985
1220.7031,0.011782
1222.5668,0.011644
1224.4305,0.011468
1226.2941,0.011330
1228.1578,0.011172
1230.0215,0.011035
1231.8852,0.010966
1233.7488,0.010888
1235.6125,0.010806
1237.4762,0.010739
1239.3398,0.010693
1241.2035,0.010645
1243.0672,0.010594
1244.9308,0.010523
1246.7945,0.010428
1248.6582,0.010383
1250.5218,0.010395
1252.3855,0.010384
1254.2492,0.010351
1256.1129,0.010299
1257.9765,0.010303
1259.8402,0.010301
1261.7039,0.010194
1263.5675,0.010211
1265.4312,0.010260
1267.2949,0.010253
1269.1585,0.010234
1271.0222,0.010204
1272.8859,0.010265
1274.7495,0.010329
1276.6132,0.010388
1278.4769,0.010409
1280.3405,0.010459
1282.2042,0.010594
1284.0679,0.010641
1285.9316,0.010619
1287.7952,0.010689
1289.6589,0.010794
1291.5226,0.010793
1293.3862,0.010918
1295.2499,0.011050
1297.1136,0.011074
1298.9772,0.011194
1300.8409,0.011328
1302.7046,0.011429
1304.5682,0.011493
1306.4319,0.011518
1308.2956,0.011581
1310.1592,0.011657
1312.0229,0.011745
1313.8866,0.011890
1315.7503,0.012024
1317.6139,0.012151
1319.4776,0.012251
1321.3413,0.012336
1323.2049,0.012383
1325.0686,0.012491
1326.9323,0.012667
1328.7959,0.012813
1330.6596,0.012895
1332.5233,0.012980
1334.3869,0.013102
1336.2506,0.013157
1338.1143,0.013248
1339.9780,0.013567
1341.8416,0.013899
1343.7053,0.014011
1345.5690,0.014065
1347.4326,0.014185
1349.2963,0.014350
1351.1600,0.014501
1353.0236,0.014696
1354.8873,0.014944
1356.7510,0.015160
1358.6146,0.015270
1360.4783,0.015345
1362.3420,0.015560
1364.2056,0.015971
1366.0693,0.016274
1367.9330,0.016523
1369.7967,0.016762
1371.6603,0.016818
1373.5240,0.017044
1375.3877,0.017424
1377.2513,0.017644
1379.1150,0.017914
1380.9787,0.018310
1382.8423,0.018498
1384.7060,0.018384
1386.5697,0.018505
1388.4333,0.019318
1390.2970,0.019710
1392.1607,0.019480
1394.0244,0.019572
1395.8880,0.020050
1397.7517,0.020232
1399.6154,0.020664
1401.4790,0.020922
1403.3427,0.020865
1405.2064,0.021142
1407.0700,0.021419
1408.9337,0.021532
1410.7974,0.021623
1412.6610,0.021853
1414.5247,0.021947
1416.3884,0.021549
1418.2520,0.021341
1420.1157,0.021923
1421.9794,0.021906
1423.8431,0.021751
1425.7067,0.021818
1427.5704,0.021488
1429.4341,0.021390
1431.2977,0.021527
1433.1614,0.021237
1435.0251,0.020649
1436.8887,0.020807
1438.7524,0.021148
1440.6161,0.020813
1442.4797,0.020788
1444.3434,0.020686
1446.2071,0.020408
1448.0707,0.020416
1449.9344,0.020511
1451.7981,0.020394
1453.6618,0.019849
1455.5254,0.018931
1457.3891,0.018941
1459.2528,0.019447
1461.1164,0.019238
1462.9801,0.018909
1464.8438,0.018870
1466.7074,0.018825
1468.5711,0.018357
1470.4348,0.017704
1472.2984,0.017213
1474.1621,0.017534
1476.0258,0.017521
1477.8895,0.017345
1479.7531,0.017115
1481.6168,0.016895
1483.4805,0.016842
1485.3441,0.016616
1487.2078,0.016206
1489.0715,0.015934
1490.9351,0.016003
1492.7988,0.015885
1494.6625,0.015424
1496.5261,0.015147
1498.3898,0.015185
1500.2535,0.015177
1502.1171,0.014992
1503.9808,0.014490
1505.8445,0.013832
1507.7082,0.013888
1509.5718,0.014074
1511.4355,0.014088
1513.2992,0.014039
1515.1628,0.013529
1517.0265,0.013155
1518.8902,0.013158
1520.7538,0.013000
1522.6175,0.012932
1524.4812,0.012754
1526.3448,0.012662
1528.2085,0.012873
1530.0722,0.012752
1531.9359,0.012416
1533.7995,0.012397
1535.6632,0.012288
1537.5269,0.011702
1539.3905,0.011107
1541.2542,0.011069
1543.1179,0.011079
1544.9815,0.011065
1546.8452,0.011241
1548.7089,0.011199
1550.5725,0.011080
1552.4362,0.011152
1554.2999,0.011100
1556.1635,0.010907
1558.0272,0.010238
1559.8909,0.010028
1561.7546,0.010451
1563.6182,0.010572
1565.4819,0.010601
1567.3456,0.010630
1569.2092,0.010595
1571.0729,0.010715
1572.9366,0.010788
1574.8002,0.010597
1576.6639,0.010528
1578.5276,0.010939
1580.3912,0.011052
1582.2549,0.011128
1584.1186,0.011281
1585.9822,0.011339
1587.8459,0.011517
1589.7096,0.011631
1591.5733,0.011634
1593.4369,0.011757
1595.3006,0.011845
1597.1643,0.011881
1599.0279,0.012091
1600.8916,0.012253
1602.7553,0.012403
1604.6189,0.012692
1606.4826,0.013045
1608.3463,0.013070
1610.2099,0.013057
1612.0736,0.013333
1613.9373,0.013632
1615.8010,0.013673
1617.6646,0.013976
1619.5283,0.014483
1621.3920,0.014602
1623.2556,0.014577
1625.1193,0.014924
1626.9830,0.015132
1628.8466,0.015375
1630.7103,0.015778
1632.5740,0.015879
1634.4376,0.015522
1636.3013,0.015387
1638.1650,0.015854
1640.0286,0.016044
1641.8923,0.016010
1643.7560,0.015800
1645.6197,0.015636
1647.4833,0.015890
1649.3470,0.015648
1651.2107,0.014950
1653.0743,0.014362
1654.9380,0.014828
1656.8017,0.015033
1658.6653,0.014969
1660.5290,0.014863
1662.3927,0.014602
1664.2563,0.014511
1666.1200,0.014376
1667.9837,0.014044
1669.8474,0.013510
1671.7110,0.013423
1673.5747,0.013385
1675.4384,0.012957
1677.3020,0.012751
1679.1657,0.012758
1681.0294,0.012609
1682.8930,0.012049
1684.7567,0.011094
1686.6204,0.011026
1688.4840,0.011044
1690.3477,0.010949
1692.2114,0.010862
1694.0750,0.010646
1695.9387,0.010034
1697.8024,0.009891
1699.6661,0.009415
1701.5297,0.009017
1703.3934,0.009191
1705.2571,0.008959
1707.1207,0.008823
1708.9844,0.008839
1710.8481,0.008927
1712.7117,0.008953
1714.5754,0.008703
1716.4391,0.008206
1718.3027,0.007590
1720.1664,0.007750
1722.0301,0.008154
1723.8937,0.008320
1725.7574,0.008302
1727.6211,0.008206
1729.4848,0.008177
1731.3484,0.008287
1733.2121,0.007976
1735.0758,0.007431
1736.9394,0.007675
1738.8031,0.007673
1740.6668,0.007606
1742.5304,0.007567
1744.3941,0.007744
1746.2578,0.007875
1748.1214,0.007705
1749.9851,0.007462
1751.8488,0.007385
1753.7125,0.007576
1755.5761,0.007729
1757.4398,0.007770
1759.3035,0.007798
1761.1671,0.007598
1763.0308,0.007542
1764.8945,0.007849
1766.7581,0.007861
1768.6218,0.007730
1770.4855,0.007814
1772.3491,0.007281
1774.2128,0.007002
1776.0765,0.007491
1777.9401,0.007943
1779.8038,0.007826
1781.6675,0.007738
1783.5312,0.007775
1785.3948,0.007825
1787.2585,0.008063
1789.1222,0.008284
1790.9858,0.008237
1792.8495,0.008057
1794.7132,0.008080
1796.5768,0.008072
1798.4405,0.008075
1800.3042,0.008021
1802.1678,0.008038
1804.0315,0.008203
1805.8952,0.008213
1807.7589,0.008096
1809.6225,0.007941
1811.4862,0.007981
1813.3499,0.007950
1815.2135,0.007775
1817.0772,0.007763
1818.9409,0.007893
1820.8045,0.008096
1822.6682,0.008319
1824.5319,0.008061
1826.3955,0.007636
1828.2592,0.007735
1830.1229,0.007606
1831.9865,0.007565
1833.8502,0.007913
1835.7139,0.008208
1837.5776,0.008242
1839.4412,0.008218
1841.3049,0.008175
1843.1686,0.008041
1845.0322,0.007720
1846.8959,0.007926
1848.7596,0.008104
1850.6232,0.007992
1852.4869,0.008178
1854.3506,0.008320
1856.2142,0.008201
1858.0779,0.008103
1859.9416,0.008171
1861.8052,0.008263
1863.6689,0.008203
1865.5326,0.008215
1867.3963,0.008439
1869.2599,0.008252
1871.1236,0.007979
1872.9873,0.008329
1874.8509,0.008589
1876.7146,0.008257
1878.5783,0.008003
1880.4419,0.008305
1882.3056,0.008537
1884.1693,0.008513
1886.0329,0.008305
1887.8966,0.008124
1889.7603,0.008179
1891.6240,0.008258
1893.4876,0.008326
1895.3513,0.008640
1897.2150,0.008825
1899.0786,0.008544
1900.9423,0.008132
1902.8060,0.008276
1904.6696,0.008468
1906.5333,0.008664
1908.3970,0.008940
1910.2606,0.008803
1912.1243,0.008331
1913.9880,0.008404
1915.8516,0.008506
1917.7153,0.008273
1919.5790,0.008396
1921.4427,0.008350
1923.3063,0.008390
1925.1700,0.008527
1927.0337,0.008442
1928.8973,0.008352
1930.7610,0.008762
1932.6247,0.008961
1934.4883,0.008734
1936.3520,0.008417
1938.2157,0.008460
1940.0793,0.008523
1941.9430,0.008353
1943.8067,0.008050
1945.6704,0.007722
1947.5340,0.008001
1949.3977,0.008310
1951.2614,0.008001
1953.1250,0.008245
1954.9887,0.008962
1956.8524,0.008884
1958.7160,0.008459
1960.5797,0.008481
1962.4434,0.008174
1964.3070,0.007954
1966.1707,0.008382
1968.0344,0.009145
1969.8980,0.009519
1971.7617,0.009237
1973.6254,0.008968
1975.4891,0.008918
1977.3527,0.008597
1979.2164,0.008137
1981.0801,0.007892
1982.9437,0.008829
1984.8074,0.009554
1986.6711,0.008983
1988.5347,0.008532
1990.3984,0.008605
1992.2621,0.009108
1994.1257,0.009382
1995.9894,0.008854
1997.8531,0.008468
1999.7167,0.008214
2001.5804,0.008604
2003.4441,0.009306
2005.3078,0.009649
2007.1714,0.009615
2009.0351,0.008990
2010.8988,0.009248
2012.7624,0.009453
2014.6261,0.008731
2016.4898,0.008322
2018.3534,0.008656
2020.2171,0.008859
2022.0808,0.008325
2023.9444,0.008026
2025.8081,0.008117
2027.6718,0.008305
2029.5355,0.008260
2031.3991,0.008256
2033.2628,0.008666
2035.1265,0.009560
2036.9901,0.009773
2038.8538,0.009718
2040.7175,0.009415
2042.5811,0.009156
2044.4448,0.009258
2046.3085,0.009463
2048.1721,0.009247
2050.0358,0.009163
2051.8995,0.009359
2053.7631,0.009211
2055.6268,0.008942
2057.4905,0.009443
2059.3542,0.009966
2061.2178,0.009481
2063.0815,0.009090
2064.9452,0.009080
2066.8088,0.009081
2068.6725,0.009370
2070.5362,0.009674
2072.3998,0.009980
2074.2635,0.009552
2076.1272,0.009699
2077.9908,0.010071
2079.8545,0.009588
2081.7182,0.009362
2083.5819,0.009537
2085.4455,0.009532
2087.3092,0.009702
2089.1729,0.009525
2091.0365,0.009627
2092.9002,0.009290
2094.7639,0.009169
2096.6275,0.009676
2098.4912,0.009375
2100.3549,0.009565
2102.2185,0.010040
2104.0822,0.009745
2105.9459,0.009546
2107.8095,0.009777
2109.6732,0.009499
2111.5369,0.009552
2113.4006,0.009673
2115.2642,0.009403
2117.1279,0.009617
2118.9916,0.010012
2120.8552,0.009701
2122.7189,0.009320
2124.5826,0.009287
2126.4462,0.009305
2128.3099,0.009129
2130.1736,0.008937
2132.0372,0.008674
2133.9009,0.008811
2135.7646,0.009186
2137.6282,0.009237
2139.4919,0.009393
2141.3556,0.008925
2143.2193,0.008697
2145.0829,0.009436
2146.9466,0.008969
2148.8103,0.007938
2150.6739,0.008400
2152.5376,0.008763
2154.4013,0.008397
2156.2649,0.007830
2158.1286,0.007635
2159.9923,0.009215
2161.8559,0.010167
2163.7196,0.010302
2165.5833,0.010843
2167.4470,0.011381
2169.3106,0.010821
2171.1743,0.010121
2173.0380,0.010308
2174.9016,0.010286
2176.7653,0.009419
2178.6290,0.009126
2180.4926,0.009015
2182.3563,0.008685
2184.2200,0.009365
2186.0836,0.010269
2187.9473,0.010303
2189.8110,0.009692
2191.6746,0.009485
2193.5383,0.009682
2195.4020,0.009457
2197.2657,0.009410
2199.1293,0.009769
2200.9930,0.010034
2202.8567,0.009794
2204.7203,0.009697
2206.5840,0.009599
2208.4477,0.009393
2210.3113,0.010332
2212.1750,0.010196
2214.0387,0.009542
2215.9023,0.009716
2217.7660,0.010203
2219.6297,0.010267
2221.4934,0.009955
2223.3570,0.010149
2225.2207,0.010076
2227.0844,0.010290
2228.9480,0.010659
2230.8117,0.010146
2232.6754,0.009565
2234.5390,0.010321
2236.4027,0.010754
2238.2664,0.010542
2240.1300,0.010052
2241.9937,0.010150
2243.8574,0.010381
2245.7210,0.010426
2247.5847,0.010078
2249.4484,0.009769
2251.3121,0.010040
2253.1757,0.010450
2255.0394,0.010658
2256.9031,0.010373
2258.7667,0.010173
2260.6304,0.009773
2262.4941,0.009424
2264.3577,0.009420
2266.2214,0.010472
2268.0851,0.011040
2269.9487,0.010719
2271.8124,0.010740
2273.6761,0.010824
2275.5397,0.010453
2277.4034,0.010181
2279.2671,0.010438
2281.1308,0.010445
2282.9944,0.010081
2284.8581,0.010190
2286.7218,0.010828
2288.5854,0.010910
2290.4491,0.010598
2292.3128,0.010643
2294.1764,0.010932
2296.0401,0.011222
2297.9038,0.011027
2299.7674,0.010544
2301.6311,0.010438
2303.4948,0.010645
2305.3585,0.011002
2307.2221,0.011246
2309.0858,0.010971
2310.9495,0.011095
2312.8131,0.011647
2314.6768,0.011903
2316.5405,0.011763
2318.4041,0.011407
2320.2678,0.011669
2322.1315,0.012236
2323.9951,0.012133
2325.8588,0.011731
2327.7225,0.011745
2329.5861,0.011758
2331.4498,0.011743
2333.3135,0.011598
2335.1772,0.011846
2337.0408,0.012085
2338.9045,0.012133
2340.7682,0.012298
2342.6318,0.012177
2344.4955,0.011493
2346.3592,0.010922
2348.2228,0.010974
2350.0865,0.011317
2351.9502,0.011923
2353.8138,0.012196
2355.6775,0.012159
2357.5412,0.012456
2359.4049,0.012572
2361.2685,0.012356
2363.1322,0.011968
2364.9959,0.011665
2366.8595,0.011451
2368.7232,0.011435
2370.5869,0.011374
2372.4505,0.011400
2374.3142,0.011627
2376.1779,0.011402
2378.0415,0.010964
2379.9052,0.010599
2381.7689,0.010339
2383.6325,0.010265
2385.4962,0.010134
2387.3599,0.009972
2389.2236,0.010019
2391.0872,0.009919
2392.9509,0.010088
2394.8146,0.010292
2396.6782,0.010391
2398.5419,0.010405
2400.4056,0.010467
2402.2692,0.010719
2404.1329,0.010784
2405.9966,0.010438
2407.8602,0.010074
2409.7239,0.010029
2411.5876,0.010351
2413.4512,0.010192
2415.3149,0.010276
2417.1786,0.010274
2419.0423,0.010251
2420.9059,0.010614
2422.7696,0.010777
2424.6333,0.010668
2426.4969,0.010600
2428.3606,0.010304
2430.2243,0.010368
2432.0879,0.010629
2433.9516,0.010527
2435.8153,0.010317
2437.6789,0.010259
2439.5426,0.010443
2441.4063,0.010852
2443.2700,0.010693
2445.1336,0.010497
2446.9973,0.010587
2448.8610,0.010198
2450.7246,0.010203
2452.5883,0.010643
2454.4520,0.010757
2456.3156,0.010740
2458.1793,0.010848
2460.0430,0.010623
2461.9066,0.010063
2463.7703,0.010144
2465.6340,0.010619
2467.4976,0.010851
2469.3613,0.011052
2471.2250,0.010805
2473.0887,0.010373
2474.9523,0.010895
2476.8160,0.011189
2478.6797,0.010930
2480.5433,0.010787
2482.4070,0.010462
2484.2707,0.010258
2486.1343,0.010668
2487.9980,0.010687
2489.8617,0.010575
2491.7253,0.010858
2493.5890,0.010808
2495.4527,0.010600
2497.3164,0.010538
2499.1800,0.011042
2501.0437,0.011541
2502.9074,0.011327
2504.7710,0.011098
2506.6347,0.011100
2508.4984,0.011173
2510.3620,0.010966
2512.2257,0.011110
2514.0894,0.011287
2515.9530,0.011111
2517.8167,0.010646
2519.6804,0.010566
2521.5440,0.010980
2523.4077,0.010777
2525.2714,0.010774
2527.1351,0.011094
2528.9987,0.010695
2530.8624,0.010641
2532.7261,0.010856
2534.5897,0.010792
2536.4534,0.010476
2538.3171,0.010646
2540.1807,0.010718
2542.0444,0.010795
2543.9081,0.010768
2545.7717,0.010696
2547.6354,0.010614
2549.4991,0.010740
2551.3627,0.010567
2553.2264,0.010144
2555.0901,0.010284
2556.9538,0.010594
2558.8174,0.010880
2560.6811,0.011191
2562.5448,0.011155
2564.4084,0.011038
2566.2721,0.011033
2568.1358,0.010840
2569.9994,0.011037
2571.8631,0.011236
2573.7268,0.010866
2575.5904,0.010381
2577.4541,0.010508
2579.3178,0.010981
2581.1815,0.011221
2583.0451,0.011055
2584.9088,0.011040
2586.7725,0.010905
2588.6361,0.010907
2590.4998,0.010967
2592.3635,0.010731
2594.2271,0.010186
2596.0908,0.010121
2597.9545,0.010544
2599.8181,0.010724
2601.6818,0.010807
2603.5455,0.010963
2605.4091,0.011050
2607.2728,0.010746
2609.1365,0.010563
2611.0002,0.010984
2612.8638,0.011219
2614.7275,0.010926
2616.5912,0.010651
2618.4548,0.010710
2620.3185,0.010919
2622.1822,0.011183
2624.0458,0.011002
2625.9095,0.010654
2627.7732,0.010736
2629.6368,0.010981
2631.5005,0.011044
2633.3642,0.010972
2635.2279,0.011003
2637.0915,0.011057
2638.9552,0.011043
2640.8189,0.010951
2642.6825,0.010841
2644.5462,0.010857
2646.4099,0.010800
2648.2735,0.010707
2650.1372,0.010877
2652.0009,0.011126
2653.8645,0.011116
2655.7282,0.010882
2657.5919,0.010761
2659.4555,0.011038
2661.3192,0.011128
2663.1829,0.010890
2665.0466,0.010744
2666.9102,0.010563
2668.7739,0.010379
2670.6376,0.010459
2672.5012,0.010819
2674.3649,0.010840
2676.2286,0.010625
2678.0922,0.010584
2679.9559,0.010781
2681.8196,0.010903
2683.6832,0.010826
2685.5469,0.010752
2687.4106,0.010646
2689.2742,0.010531
2691.1379,0.010818
2693.0016,0.011101
2694.8653,0.010709
2696.7289,0.010319
2698.5926,0.010622
2700.4563,0.010927
2702.3199,0.010973
2704.1836,0.011074
2706.0473,0.010934
2707.9109,0.010853
2709.7746,0.010859
2711.6383,0.010760
2713.5019,0.010788
2715.3656,0.010874
2717.2293,0.010934
2719.0930,0.010902
2720.9566,0.010696
2722.8203,0.010666
2724.6840,0.010832
2726.5476,0.010909
2728.4113,0.010722
2730.2750,0.010765
2732.1386,0.010733
2734.0023,0.010726
2735.8660,0.010871
2737.7296,0.011033
2739.5933,0.011029
2741.4570,0.010927
2743.3206,0.010759
2745.1843,0.010854
2747.0480,0.011161
2748.9117,0.011041
2750.7753,0.010921
2752.6390,0.010917
2754.5027,0.011068
2756.3663,0.011247
2758.2300,0.010961
2760.0937,0.010814
2761.9573,0.011072
2763.8210,0.010949
2765.6847,0.011005
2767.5483,0.011285
2769.4120,0.011074
2771.2757,0.010817
2773.1394,0.010998
2775.0030,0.011231
2776.8667,0.011117
2778.7304,0.011115
2780.5940,0.011334
2782.4577,0.011478
2784.3214,0.011302
2786.1850,0.010894
2788.0487,0.010588
2789.9124,0.010836
2791.7760,0.011236
2793.6397,0.011070
2795.5034,0.011047
2797.3670,0.011279
2799.2307,0.011152
2801.0944,0.011122
2802.9581,0.011105
2804.8217,0.010833
2806.6854,0.010861
2808.5491,0.011188
2810.4127,0.011139
2812.2764,0.010990
2814.1401,0.011067
2816.0037,0.011403
2817.8674,0.011475
2819.7311,0.011165
2821.5947,0.010996
2823.4584,0.011120
2825.3221,0.011426
2827.1857,0.011404
2829.0494,0.011215
2830.9131,0.011129
2832.7768,0.011164
2834.6404,0.011376
2836.5041,0.011377
2838.3678,0.011316
2840.2314,0.011394
2842.0951,0.011481
2843.9588,0.011476
2845.8224,0.011383
2847.6861,0.011304
2849.5498,0.011233
2851.4134,0.011213
2853.2771,0.011521
2855.1408,0.011860
2857.0045,0.011517
2858.8681,0.011379
2860.7318,0.011755
2862.5955,0.011765
2864.4591,0.011640
2866.3228,0.011669
2868.1865,0.011792
2870.0501,0.011792
2871.9138,0.011624
2873.7775,0.011411
2875.6411,0.011509
2877.5048,0.011858
2879.3685,0.012134
2881.2321,0.011893
2883.0958,0.011278
2884.9595,0.011466
2886.8232,0.011762
2888.6868,0.011565
2890.5505,0.011597
2892.4142,0.011796
2894.2778,0.011748
2896.1415,0.011346
2898.0052,0.011240
2899.8688,0.011451
2901.7325,0.011568
2903.5962,0.011844
2905.4598,0.012004
2907.3235,0.011813
2909.1872,0.011926
2911.0509,0.012112
2912.9145,0.011917
2914.7782,0.011943
2916.6419,0.012049
2918.5055,0.011908
2920.3692,0.011777
2922.2329,0.011664
2924.0965,0.011457
2925.9602,0.011694
2927.8239,0.012331
2929.6875,0.012466
2931.5512,0.011911
2933.4149,0.011590
2935.2785,0.011853
2937.1422,0.012332
2939.0059,0.012191
2940.8696,0.011736
2942.7332,0.011680
2944.5969,0.011732
2946.4606,0.012071
2948.3242,0.012213
2950.1879,0.012124
2952.0516,0.012116
2953.9152,0.011920
2955.7789,0.011926
2957.6426,0.012041
2959.5062,0.012146
2961.3699,0.012036
2963.2336,0.011729
2965.0972,0.011667
2966.9609,0.011618
2968.8246,0.011483
2970.6883,0.011459
2972.5519,0.011663
2974.4156,0.011928
2976.2793,0.011905
2978.1429,0.011523
2980.0066,0.011520
2981.8703,0.012009
2983.7339,0.012163
2985.5976,0.011908
2987.4613,0.011733
2989.3249,0.011844
2991.1886,0.011900
2993.0523,0.011997
2994.9160,0.012004
2996.7796,0.011704
2998.6433,0.011513
3000.5070,0.011711
3002.3706,0.011969
3004.2343,0.012074
3006.0980,0.011825
3007.9616,0.011645
3009.8253,0.011815
3011.6890,0.011774
3013.5526,0.011999
3015.4163,0.012051
3017.2800,0.011352
3019.1436,0.011276
3021.0073,0.011772
3022.8710,0.011722
3024.7347,0.011640
3026.5983,0.012248
3028.4620,0.012696
3030.3257,0.012453
3032.1893,0.011911
3034.0530,0.011749
3035.9167,0.012126
3037.7803,0.012185
3039.6440,0.012318
3041.5077,0.012591
3043.3713,0.012394
3045.2350,0.012371
3047.0987,0.012352
3048.9624,0.011969
3050.8260,0.011871
3052.6897,0.012189
3054.5534,0.012123
3056.4170,0.012112
3058.2807,0.012627
3060.1444,0.013010
3062.0080,0.013141
3063.8717,0.012874
3065.7354,0.012199
3067.5990,0.012017
3069.4627,0.012135
3071.3264,0.012002
3073.1900,0.012103
3075.0537,0.012712
3076.9174,0.013379
3078.7811,0.013165
3080.6447,0.012845
3082.5084,0.012994
3084.3721,0.013212
3086.2357,0.013252
3088.0994,0.012799
3089.9631,0.012852
3091.8267,0.012969
3093.6904,0.012677
3095.5541,0.012892
3097.4177,0.013101
3099.2814,0.012942
3101.1451,0.013160
3103.0087,0.013470
3104.8724,0.013150
3106.7361,0.012864
3108.5998,0.012894
3110.4634,0.012878
3112.3271,0.013093
3114.1908,0.013471
3116.0544,0.013385
3117.9181,0.013379
3119.7818,0.013536
3121.6454,0.012938
3123.5091,0.012809
3125.3728,0.013476
3127.2364,0.013705
3129.1001,0.013721
3130.9638,0.013267
3132.8275,0.012728
3134.6911,0.013097
3136.5548,0.013710
3138.4185,0.013885
3140.2821,0.013976
3142.1458,0.013979
3144.0095,0.013855
3145.8731,0.013425
3147.7368,0.013100
3149.6005,0.013039
3151.4641,0.013458
3153.3278,0.014078
3155.1915,0.013786
3157.0551,0.013418
3158.9188,0.014330
3160.7825,0.015043
3162.6462,0.014107
3164.5098,0.013500
3166.3735,0.014090
3168.2372,0.014515
3170.1008,0.014475
3171.9645,0.014063
3173.8282,0.014125
3175.6918,0.014736
3177.5555,0.014384
3179.4192,0.014086
3181.2828,0.014637
3183.1465,0.014448
3185.0102,0.014085
3186.8739,0.014719
3188.7375,0.014635
3190.6012,0.013931
3192.4649,0.014434
3194.3285,0.014757
3196.1922,0.014233
3198.0559,0.014058
3199.9195,0.014493
3201.7832,0.014648
3203.6469,0.014608
3205.5105,0.014818
3207.3742,0.014694
3209.2379,0.014346
3211.1015,0.014493
3212.9652,0.015144
3214.8289,0.015543
3216.6926,0.014706
3218.5562,0.013953
3220.4199,0.014369
3222.2836,0.014736
3224.1472,0.014933
3226.0109,0.014927
3227.8746,0.014256
3229.7382,0.014415
3231.6019,0.015481
3233.4656,0.015990
3235.3292,0.015909
3237.1929,0.015018
3239.0566,0.014293
3240.9202,0.014882
3242.7839,0.015155
3244.6476,0.014459
3246.5113,0.014099
3248.3749,0.014292
3250.2386,0.014603
3252.1023,0.014547
3253.9659,0.013894
3255.8296,0.014280
3257.6933,0.015117
3259.5569,0.014585
3261.4206,0.014021
3263.2843,0.014193
3265.1479,0.014260
3267.0116,0.014828
3268.8753,0.015622
3270.7390,0.015075
3272.6026,0.014531
3274.4663,0.014760
3276.3300,0.014353
3278.1936,0.014247
3280.0573,0.015046
3281.9210,0.015127
3283.7846,0.014668
3285.6483,0.014953
3287.5120,0.015240
3289.3756,0.015334
3291.2393,0.015086
3293.1030,0.015277
3294.9666,0.015286
3296.8303,0.014821
3298.6940,0.014671
3300.5577,0.015195
3302.4213,0.015073
3304.2850,0.014126
3306.1487,0.014527
3308.0123,0.014485
3309.8760,0.013676
3311.7397,0.014324
3313.6033,0.014958
3315.4670,0.014207
3317.3307,0.014408
3319.1943,0.014609
3321.0580,0.013809
3322.9217,0.014241
3324.7854,0.015216
3326.6490,0.015232
3328.5127,0.014314
3330.3764,0.014192
3332.2400,0.014526
3334.1037,0.014309
3335.9674,0.014619
3337.8310,0.014636
3339.6947,0.013913
3341.5584,0.013317
3343.4220,0.013039
3345.2857,0.013730
3347.1494,0.015205
3349.0130,0.015131
3350.8767,0.014469
3352.7404,0.014547
3354.6041,0.013921
3356.4677,0.014042
3358.3314,0.015214
3360.1951,0.015313
3362.0587,0.014926
3363.9224,0.014870
3365.7861,0.014786
3367.6497,0.014530
3369.5134,0.014843
3371.3771,0.014516
3373.2407,0.013290
3375.1044,0.013128
3376.9681,0.013077
3378.8317,0.014257
3380.6954,0.015261
3382.5591,0.014271
3384.4228,0.013230
3386.2864,0.013926
3388.1501,0.014349
3390.0138,0.013643
3391.8774,0.013464
3393.7411,0.014398
3395.6048,0.013821
3397.4684,0.012377
3399.3321,0.013089
3401.1958,0.014911
3403.0594,0.015284
3404.9231,0.014772
3406.7868,0.014621
3408.6505,0.014845
3410.5141,0.014187
3412.3778,0.013044
3414.2415,0.012546
3416.1051,0.012844
3417.9688,0.012643
3419.8325,0.011978
3421.6961,0.012341
3423.5598,0.013498
3425.4235,0.013665
3427.2871,0.013784
3429.1508,0.013410
3431.0145,0.013107
3432.8781,0.012823
3434.7418,0.011422
3436.6055,0.009969
3438.4692,0.010466
3440.3328,0.012685
3442.1965,0.013546
3444.0602,0.011858
3445.9238,0.011011
3447.7875,0.012021
3449.6512,0.012850
3451.5148,0.012457
3453.3785,0.011264
3455.2422,0.010311
3457.1058,0.010928
3458.9695,0.012591
3460.8332,0.012793
3462.6969,0.012083
3464.5605,0.011985
3466.4242,0.011790
3468.2879,0.010979
3470.1515,0.010362
3472.0152,0.011068
3473.8789,0.011963
3475.7425,0.010938
3477.6062,0.009898
3479.4699,0.011421
3481.3335,0.012676
3483.1972,0.012616
3485.0609,0.011750
3486.9245,0.011759
3488.7882,0.011469
3490.6519,0.010047
3492.5156,0.010626
3494.3792,0.011802
3496.2429,0.011663
3498.1066,0.012363
3499.9702,0.012364
3501.8339,0.010765
3503.6976,0.010529
3505.5612,0.010782
3507.4249,0.010891
3509.2886,0.010149
3511.1522,0.009762
3513.0159,0.011304
3514.8796,0.011515
3516.7432,0.011257
3518.6069,0.011458
3520.4706,0.010248
3522.3343,0.009420
3524.1979,0.009706
3526.0616,0.010931
3527.9253,0.012655
3529.7889,0.013029
3531.6526,0.011143
3533.5163,0.010316
3535.3799,0.010949
3537.2436,0.010722
3539.1073,0.010443
3540.9709,0.011461
3542.8346,0.011317
3544.6983,0.009922
3546.5620,0.009192
3548.4256,0.009443
3550.2893,0.010638
3552.1530,0.011648
3554.0166,0.011825
3555.8803,0.011708
3557.7440,0.011124
3559.6076,0.010841
3561.4713,0.010747
3563.3350,0.010117
3565.1986,0.010460
3567.0623,0.010676
3568.9260,0.009696
3570.7896,0.009307
3572.6533,0.009809
3574.5170,0.008864
3576.3807,0.008250
3578.2443,0.009592
3580.1080,0.010193
3581.9717,0.009715
3583.8353,0.010182
3585.6990,0.010510
3587.5627,0.009345
3589.4263,0.008856
3591.2900,0.009705
3593.1537,0.009723
3595.0173,0.009360
3596.8810,0.008594
3598.7447,0.008704
3600.6084,0.008889
3602.4720,0.009338
3604.3357,0.010294
3606.1994,0.010005
3608.0630,0.009341
3609.9267,0.009160
3611.7904,0.009839
3613.6540,0.009972
3615.5177,0.009738
3617.3814,0.010234
3619.2450,0.009257
3621.1087,0.008072
3622.9724,0.009117
3624.8360,0.010514
3626.6997,0.009770
3628.5634,0.008808
3630.4271,0.008848
3632.2907,0.008178
3634.1544,0.008931
3636.0181,0.009083
3637.8817,0.009094
3639.7454,0.009401
3641.6091,0.008439
3643.4727,0.008541
3645.3364,0.009309
3647.2001,0.009865
3649.0637,0.008510
3650.9274,0.006743
3652.7911,0.006684
3654.6547,0.007218
3656.5184,0.007500
3658.3821,0.007402
3660.2458,0.008538
3662.1094,0.008609
3663.9731,0.008020
3665.8368,0.007770
3667.7004,0.007851
3669.5641,0.008448
3671.4278,0.008472
3673.2914,0.007097
3675.1551,0.006211
3677.0188,0.006095
3678.8824,0.006218
3680.7461,0.006192
3682.6098,0.006521
3684.4735,0.007732
3686.3371,0.007872
3688.2008,0.006251
3690.0645,0.005498
3691.9281,0.005628
3693.7918,0.005664
3695.6555,0.005919
3697.5191,0.005922
3699.3828,0.005375
3701.2465,0.005296
3703.1101,0.005594
3704.9738,0.005378
3706.8375,0.005779
3708.7011,0.006346
3710.5648,0.006067
3712.4285,0.005592
3714.2922,0.005472
3716.1558,0.005163
3718.0195,0.004720
3719.8832,0.004331
3721.7468,0.004678
3723.6105,0.004439
3725.4742,0.003990
3727.3378,0.003315
3729.2015,0.003724
3731.0652,0.003946
3732.9288,0.003287
3734.7925,0.002410
3736.6562,0.002322
3738.5199,0.003138
3740.3835,0.004659
3742.2472,0.005207
3744.1109,0.004335
3745.9745,0.003769
3747.8382,0.004794
3749.7019,0.004988
3751.5655,0.003458
3753.4292,0.003094
3755.2929,0.003436
3757.1565,0.003534
3759.0202,0.004220
3760.8839,0.004442
3762.7475,0.004067
3764.6112,0.004174
3766.4749,0.004263
3768.3386,0.004060
3770.2022,0.003697
3772.0659,0.003672
3773.9296,0.004403
3775.7932,0.004617
3777.6569,0.004292
3779.5206,0.003838
3781.3842,0.004237
3783.2479,0.004345
3785.1116,0.004063
3786.9752,0.004766
3788.8389,0.005075
3790.7026,0.004283
3792.5662,0.004216
3794.4299,0.004450
3796.2936,0.004238
3798.1573,0.003698
3800.0209,0.003632
3801.8846,0.004198
3803.7483,0.003454
3805.6119,0.003385
3807.4756,0.004470
3809.3393,0.005027
3811.2029,0.004367
3813.0666,0.004011
3814.9303,0.004626
3816.7939,0.005047
3818.6576,0.004070
3820.5213,0.003910
3822.3850,0.004449
3824.2486,0.004634
3826.1123,0.004303
3827.9760,0.004328
3829.8396,0.004172
3831.7033,0.004606
3833.5670,0.005392
3835.4306,0.004767
3837.2943,0.003417
3839.1580,0.003580
3841.0216,0.003995
3842.8853,0.003728
3844.7490,0.004133
3846.6126,0.004255
3848.4763,0.003940
3850.3400,0.004557
3852.2037,0.006083
3854.0673,0.005702
3855.9310,0.002821
3857.7947,0.002430
3859.6583,0.003787
3861.5220,0.004743
3863.3857,0.004551
3865.2493,0.004293
3867.1130,0.004212
3868.9767,0.004967
3870.8403,0.004424
3872.7040,0.003947
3874.5677,0.003911
3876.4314,0.003095
3878.2950,0.004213
3880.1587,0.004936
3882.0224,0.004727
3883.8860,0.005352
3885.7497,0.005716
3887.6134,0.004576
3889.4770,0.004229
3891.3407,0.004626
3893.2044,0.004200
3895.0680,0.004225
3896.9317,0.004889
3898.7954,0.004601
3900.6590,0.003903
3902.5227,0.003786
3904.3864,0.003881
3906.2501,0.003570
3908.1137,0.003864
3909.9774,0.004583
3911.8411,0.004839
3913.7047,0.005429
3915.5684,0.005401
3917.4321,0.004528
3919.2957,0.004119
3921.1594,0.004129
3923.0231,0.004447
3924.8867,0.004401
3926.7504,0.004467
3928.6141,0.005211
3930.4777,0.005838
3932.3414,0.005705
3934.2051,0.005000
3936.0688,0.004635
3937.9324,0.004428
3939.7961,0.004778
3941.6598,0.005373
3943.5234,0.005127
3945.3871,0.004936
3947.2508,0.005046
3949.1144,0.005207
3950.9781,0.005057
3952.8418,0.005070
3954.7054,0.005514
3956.5691,0.004914
3958.4328,0.005062
3960.2965,0.005034
3962.1601,0.004315
3964.0238,0.004864
3965.8875,0.005313
3967.7511,0.004621
3969.6148,0.004311
3971.4785,0.004742
3973.3421,0.004753
3975.2058,0.004934
3977.0695,0.005239
3978.9331,0.005619
3980.7968,0.005977
3982.6605,0.005040
3984.5241,0.004038
3986.3878,0.004332
3988.2515,0.004622
3990.1152,0.004764
3991.9788,0.004779
3993.8425,0.004358
3995.7062,0.004050
3997.5698,0.004423
3999.4335,0.005572
4001.2972,0.005921
4003.1608,0.004886
4005.0245,0.004206
4006.8882,0.004638
4008.7518,0.004703
4010.6155,0.004631
4012.4792,0.004974
4014.3429,0.004681
4016.2065,0.004446
4018.0702,0.004480
4019.9339,0.005051
4021.7975,0.004972
4023.6612,0.004415
4025.5249,0.004580
4027.3885,0.005169
4029.2522,0.005233
4031.1159,0.004608
4032.9795,0.004969
4034.8432,0.005304
4036.7069,0.005318
4038.5705,0.005629
4040.4342,0.005123
4042.2979,0.004233
4044.1616,0.004465
4046.0252,0.004890
4047.8889,0.005345
4049.7526,0.005336
4051.6162,0.004029
4053.4799,0.004181
4055.3436,0.004884
4057.2072,0.004540
4059.0709,0.004124
4060.9346,0.004120
4062.7982,0.004320
4064.6619,0.004210
4066.5256,0.004316
4068.3892,0.004345
4070.2529,0.004790
4072.1166,0.005333
4073.9803,0.004684
4075.8439,0.003809
4077.7076,0.004410
4079.5713,0.005207
4081.4349,0.004613
4083.2986,0.004346
4085.1623,0.004716
4087.0259,0.005217
4088.8896,0.005431
4090.7533,0.005089
4092.6169,0.005358
4094.4806,0.005044
4096.3443,0.004633
4098.2080,0.004271
4100.0716,0.003470
4101.9353,0.003899
4103.7990,0.004705
4105.6626,0.004611
4107.5263,0.003991
4109.3900,0.004186
4111.2536,0.004808
4113.1173,0.005014
4114.9810,0.005559
4116.8446,0.005198
4118.7083,0.004184
4120.5720,0.003492
4122.4356,0.003888
4124.2993,0.005057
4126.1630,0.005574
4128.0267,0.005302
4129.8903,0.004999
4131.7540,0.005055
4133.6177,0.004361
4135.4813,0.003888
4137.3450,0.004525
4139.2087,0.004953
4141.0723,0.005372
4142.9360,0.005290
4144.7997,0.004743
4146.6633,0.004673
4148.5270,0.004756
4150.3907,0.004466
4152.2544,0.004182
4154.1180,0.004124
4155.9817,0.004461
4157.8454,0.005005
4159.7090,0.005143
4161.5727,0.004945
4163.4364,0.005160
4165.3000,0.004820
4167.1637,0.004482
4169.0274,0.004953
4170.8910,0.005457
4172.7547,0.005006
4174.6184,0.004274
4176.4820,0.004777
4178.3457,0.004597
4180.2094,0.004663
4182.0731,0.005281
4183.9367,0.005730
4185.8004,0.005098
4187.6641,0.003974
4189.5277,0.004479
4191.3914,0.005257
4193.2551,0.004950
4195.1187,0.005006
4196.9824,0.004833
4198.8461,0.004061
4200.7097,0.004110
4202.5734,0.004584
4204.4371,0.004289
4206.3007,0.004293
4208.1644,0.004296
4210.0281,0.003849
4211.8918,0.003965
4213.7554,0.005006
4215.6191,0.005161
4217.4828,0.004471
4219.3464,0.004214
4221.2101,0.004796
4223.0738,0.005788
4224.9374,0.005407
4226.8011,0.004933
4228.6648,0.005052
4230.5284,0.004906
4232.3921,0.004726
4234.2558,0.004754
4236.1195,0.006261
4237.9831,0.006017
4239.8468,0.004351
4241.7105,0.003989
4243.5741,0.004568
4245.4378,0.005173
4247.3015,0.004863
4249.1651,0.004804
4251.0288,0.004933
4252.8925,0.005082
4254.7561,0.004950
4256.6198,0.005698
4258.4835,0.005393
4260.3471,0.003926
4262.2108,0.003810
4264.0745,0.004197
4265.9382,0.004198
4267.8018,0.004209
4269.6655,0.004406
4271.5292,0.004693
4273.3928,0.005791
4275.2565,0.006334
4277.1202,0.005623
4278.9838,0.004103
4280.8475,0.004347
4282.7112,0.004672
4284.5748,0.004565
4286.4385,0.005194
4288.3022,0.005660
4290.1659,0.005543
4292.0295,0.004553
4293.8932,0.004474
4295.7569,0.004606
4297.6205,0.004809
4299.4842,0.004547
4301.3479,0.004500
4303.2115,0.004703
4305.0752,0.005373
4306.9389,0.005942
4308.8025,0.005962
4310.6662,0.005753
4312.5299,0.004515
4314.3935,0.003484
4316.2572,0.004254
4318.1209,0.004696
4319.9846,0.004194
4321.8482,0.005043
4323.7119,0.006256
4325.5756,0.005784
4327.4392,0.005452
4329.3029,0.005987
4331.1666,0.005275
4333.0302,0.004384
4334.8939,0.004655
4336.7576,0.005385
4338.6212,0.005213
4340.4849,0.004580
4342.3486,0.004633
4344.2122,0.004994
4346.0759,0.005105
4347.9396,0.004484
4349.8033,0.004027
4351.6669,0.004342
4353.5306,0.004823
4355.3943,0.005052
4357.2579,0.004968
4359.1216,0.004985
4360.9853,0.005020
4362.8489,0.005421
4364.7126,0.004959
4366.5763,0.004745
4368.4399,0.004686
4370.3036,0.005327
4372.1673,0.006163
4374.0310,0.005619
4375.8946,0.005088
4377.7583,0.005076
4379.6220,0.005014
4381.4856,0.005430
4383.3493,0.005463
4385.2130,0.004665
4387.0766,0.004690
4388.9403,0.005221
4390.8040,0.005675
4392.6676,0.005885
4394.5313,0.005873
4396.3950,0.005473
4398.2586,0.004362
4400.1223,0.004385
4401.9860,0.004698
4403.8497,0.005308
4405.7133,0.004593
4407.5770,0.004106
4409.4407,0.004865
4411.3043,0.005561
4413.1680,0.005456
4415.0317,0.004323
4416.8953,0.003847
4418.7590,0.004986
4420.6227,0.005330
4422.4863,0.005041
4424.3500,0.004856
4426.2137,0.005696
4428.0774,0.006416
4429.9410,0.005820
4431.8047,0.004882
4433.6684,0.004835
4435.5320,0.005749
4437.3957,0.005445
4439.2594,0.004665
4441.1230,0.004590
4442.9867,0.004741
4444.8504,0.004193
4446.7140,0.005055
4448.5777,0.005982
4450.4414,0.005497
4452.3050,0.005705
4454.1687,0.005597
4456.0324,0.005075
4457.8961,0.005287
4459.7597,0.004907
4461.6234,0.005088
4463.4871,0.005765
4465.3507,0.006172
4467.2144,0.005643
4469.0781,0.005607
4470.9417,0.005412
4472.8054,0.005714
4474.6691,0.005514
4476.5327,0.005198
4478.3964,0.005093
4480.2601,0.005183
4482.1237,0.005380
4483.9874,0.005693
4485.8511,0.005529
4487.7148,0.005322
4489.5784,0.004985
4491.4421,0.004710
4493.3058,0.005124
4495.1694,0.006509
4497.0331,0.006354
4498.8968,0.005201
4500.7604,0.004485
