Wavenumber,Intensity
650.4205,0.098336
652.2841,0.100990
654.1478,0.102188
656.0115,0.100531
657.8751,0.098304
659.7388,0.097973
661.6025,0.098586
663.4661,0.098346
665.3298,0.099255
667.1935,0.099765
669.0571,0.099350
670.9208,0.098497
672.7845,0.097914
674.6481,0.098488
676.5118,0.097911
678.3755,0.095845
680.2392,0.094114
682.1028,0.093679
683.9665,0.092716
685.8302,0.090633
687.6938,0.088426
689.5575,0.086125
691.4212,0.083993
693.2848,0.082741
695.1485,0.082896
697.0122,0.082453
698.8758,0.080935
700.7395,0.080484
702.6032,0.080548
704.4669,0.081092
706.3305,0.082000
708.1942,0.083067
710.0579,0.084603
711.9215,0.085842
713.7852,0.085606
715.6489,0.084160
717.5125,0.083061
719.3762,0.082405
721.2399,0.082377
723.1035,0.083197
724.9672,0.083651
726.8309,0.083127
728.6945,0.082563
730.5582,0.082283
732.4219,0.081569
734.2856,0.080584
736.1492,0.079925
738.0129,0.079720
739.8766,0.079711
741.7402,0.079880
743.6039,0.079909
745.4676,0.079502
747.3312,0.079000
749.1949,0.078652
751.0586,0.078553
752.9222,0.078335
754.7859,0.078087
756.6496,0.078310
758.5132,0.078521
760.3769,0.078470
762.2406,0.078228
764.1043,0.077523
765.9679,0.076441
767.8316,0.075733
769.6953,0.075218
771.5589,0.074573
773.4226,0.074146
775.2863,0.073541
777.1499,0.072661
779.0136,0.072282
780.8773,0.071954
782.7409,0.071894
784.6046,0.072284
786.4683,0.072118
788.3320,0.071879
790.1956,0.071839
792.0593,0.071437
793.9230,0.071097
795.7866,0.071110
797.6503,0.071270
799.5140,0.071320
801.3776,0.071393
803.2413,0.071944
805.1050,0.072352
806.9686,0.072337
808.8323,0.072654
810.6960,0.073140
812.5596,0.073478
814.4233,0.074073
816.2870,0.074665
818.1507,0.074719
820.0143,0.074671
821.8780,0.074656
823.7417,0.074317
825.6053,0.073975
827.4690,0.074254
829.3327,0.074825
831.1963,0.075378
833.0600,0.076217
834.9237,0.077360
836.7873,0.078605
838.6510,0.079799
840.5147,0.081183
842.3784,0.082921
844.2420,0.084808
846.1057,0.086955
847.9694,0.088918
849.8330,0.090432
851.6967,0.092239
853.5604,0.094645
855.4240,0.097242
857.2877,0.099888
859.1514,0.102634
861.0150,0.105717
862.8787,0.108928
864.7424,0.112233
866.6060,0.115837
868.4697,0.119597
870.3334,0.123251
872.1971,0.125692
874.0607,0.126348
875.9244,0.125927
877.7881,0.125049
879.6517,0.123998
881.5154,0.123250
883.3791,0.122855
885.2427,0.122185
887.1064,0.122074
888.9701,0.123675
890.8337,0.126161
892.6974,0.128682
894.5611,0.131255
896.4247,0.133929
898.2884,0.136634
900.1521,0.139354
902.0158,0.142036
903.8794,0.144583
905.7431,0.146996
907.6068,0.149390
909.4704,0.151773
911.3341,0.154083
913.1978,0.156158
915.0614,0.158174
916.9251,0.160292
918.7888,0.162223
920.6524,0.164215
922.5161,0.166331
924.3798,0.168218
926.2435,0.170174
928.1071,0.172382
929.9708,0.174402
931.8345,0.176395
933.6981,0.178697
935.5618,0.180938
937.4255,0.183023
939.2891,0.185225
941.1528,0.187434
943.0165,0.189420
944.8801,0.191111
946.7438,0.192609
948.6075,0.194065
950.4711,0.195142
952.3348,0.195817
954.1985,0.196144
956.0622,0.196181
957.9258,0.196085
959.7895,0.195689
961.6532,0.195123
963.5168,0.194633
965.3805,0.194054
967.2442,0.193500
969.1078,0.193284
970.9715,0.193266
972.8352,0.193374
974.6988,0.193647
976.5625,0.193794
978.4262,0.193910
980.2899,0.194192
982.1535,0.194311
984.0172,0.194168
985.8809,0.193875
987.7445,0.193200
989.6082,0.192127
991.4719,0.190729
993.3355,0.188881
995.1992,0.186698
997.0629,0.184451
998.9265,0.182012
1000.7902,0.179324
1002.6539,0.176659
1004.5175,0.173885
1006.3812,0.170814
1008.2449,0.167722
1010.1086,0.164530
1011.9722,0.161315
1013.8359,0.158096
1015.6996,0.154570
1017.5632,0.150919
1019.4269,0.147259
1021.2906,0.143471
1023.1542,0.139712
1025.0179,0.136186
1026.8816,0.132766
1028.7452,0.129397
1030.6089,0.126271
1032.4726,0.123167
1034.3362,0.120062
1036.1999,0.117194
1038.0636,0.114327
1039.9273,0.111495
1041.7909,0.108928
1043.6546,0.106426
1045.5183,0.103962
1047.3819,0.101686
1049.2456,0.099491
1051.1093,0.097398
1052.9729,0.095441
1054.8366,0.093560
1056.7003,0.091758
1058.5639,0.089998
1060.4276,0.088408
1062.2913,0.086974
1064.1550,0.085442
1066.0186,0.083884
1067.8823,0.082556
1069.7460,0.081263
1071.6096,0.079833
1073.4733,0.078415
1075.3370,0.077083
1077.2006,0.075683
1079.0643,0.074184
1080.9280,0.072826
1082.7916,0.071425
1084.6553,0.069755
1086.5190,0.068127
1088.3826,0.066635
1090.2463,0.065032
1092.1100,0.063413
1093.9737,0.061900
1095.8373,0.060395
1097.7010,0.058851
1099.5647,0.057324
1101.4283,0.055836
1103.2920,0.054338
1105.1557,0.052936
1107.0193,0.051590
1108.8830,0.050253
1110.7467,0.048968
1112.6103,0.047719
1114.4740,0.046512
1116.3377,0.045305
1118.2014,0.044159
1120.0650,0.043146
1121.9287,0.042269
1123.7924,0.041385
1125.6560,0.040476
1127.5197,0.039657
1129.3834,0.038831
1131.2470,0.038038
1133.1107,0.037465
1134.9744,0.036956
1136.8380,0.036352
1138.7017,0.035887
1140.5654,0.035543
1142.4290,0.035089
1144.2927,0.034634
1146.1564,0.034229
1148.0201,0.033774
1149.8837,0.033351
1151.7474,0.032921
1153.6111,0.032342
1155.4747,0.031750
1157.3384,0.031204
1159.2021,0.030597
1161.0657,0.030000
1162.9294,0.029422
1164.7931,0.028730
1166.6567,0.027965
1168.5204,0.027219
1170.3841,0.026487
1172.2477,0.025752
1174.1114,0.024979
1175.9751,0.024244
1177.8388,0.023637
1179.7024,0.023032
1181.5661,0.022317
1183.4298,0.021608
1185.2934,0.020963
1187.1571,0.020301
1189.0208,0.019668
1190.8844,0.019103
1192.7481,0.018546
1194.6118,0.018087
1196.4754,0.017755
1198.3391,0.017300
1200.2028,0.016852
1202.0665,0.016541
1203.9301,0.016136
1205.7938,0.015671
1207.6575,0.015285
1209.5211,0.014992
1211.3848,0.014734
1213.2485,0.014539
1215.1121,0.014407
1216.9758,0.014261
1218.8395,0.014092
1220.7031,0.013990
1222.5668,0.013872
1224.4305,0.013712
1226.2941,0.013618
1228.1578,0.013575
1230.0215,0.013582
1231.8852,0.013568
1233.7488,0.013498
1235.6125,0.013468
1237.4762,0.013435
1239.3398,0.013365
1241.2035,0.013250
1243.0672,0.013203
1244.9308,0.013235
1246.7945,0.013224
1248.6582,0.013224
1250.5218,0.013271
1252.3855,0.013281
1254.2492,0.013300
1256.1129,0.013326
1257.9765,0.013312
1259.8402,0.013268
1261.7039,0.013183
1263.5675,0.013226
1265.4312,0.013341
1267.2949,0.013373
1269.1585,0.013359
1271.0222,0.013443
1272.8859,0.013599
1274.7495,0.013663
1276.6132,0.013675
1278.4769,0.013718
1280.3405,0.013774
1282.2042,0.013919
1284.0679,0.014110
1285.9316,0.014192
1287.7952,0.014221
1289.6589,0.014288
1291.5226,0.014332
1293.3862,0.014454
1295.2499,0.014605
1297.1136,0.014737
1298.9772,0.014865
1300.8409,0.014952
1302.7046,0.015116
1304.5682,0.015295
1306.4319,0.015396
1308.2956,0.015524
1310.1592,0.015710
1312.0229,0.015862
1313.8866,0.015962
1315.7503,0.016054
1317.6139,0.016145
1319.4776,0.016282
1321.3413,0.016499
1323.2049,0.016648
1325.0686,0.016823
1326.9323,0.017054
1328.7959,0.017241
1330.6596,0.017452
1332.5233,0.017609
1334.3869,0.017641
1336.2506,0.017753
1338.1143,0.017947
1339.9780,0.018155
1341.8416,0.018480
1343.7053,0.018767
1345.5690,0.018937
1347.4326,0.019133
1349.2963,0.019339
1351.1600,0.019584
1353.0236,0.019857
1354.8873,0.020102
1356.7510,0.020392
1358.6146,0.020728
1360.4783,0.020895
1362.3420,0.020911
1364.2056,0.021345
1366.0693,0.021875
1367.9330,0.022097
1369.7967,0.022467
1371.6603,0.022774
1373.5240,0.022904
1375.3877,0.023327
1377.2513,0.023728
1379.1150,0.023940
1380.9787,0.024399
1382.8423,0.024833
1384.7060,0.024898
1386.5697,0.024829
1388.4333,0.025341
1390.2970,0.026067
1392.1607,0.026260
1394.0244,0.026209
1395.8880,0.026593
1397.7517,0.026839
1399.6154,0.026965
1401.4790,0.027438
1403.3427,0.027609
1405.2064,0.027731
1407.0700,0.028038
1408.9337,0.028180
1410.7974,0.028178
1412.6610,0.028373
1414.5247,0.028542
1416.3884,0.028203
1418.2520,0.027350
1420.1157,0.027407
1421.9794,0.027926
1423.8431,0.027706
1425.7067,0.027551
1427.5704,0.027329
1429.4341,0.026930
1431.2977,0.026919
1433.1614,0.027010
1435.0251,0.026354
1436.8887,0.025483
1438.7524,0.025947
1440.6161,0.026188
1442.4797,0.026086
1444.3434,0.025950
1446.2071,0.025511
1448.0707,0.025201
1449.9344,0.025362
1451.7981,0.025431
1453.6618,0.025144
1455.5254,0.024069
1457.3891,0.022668
1459.2528,0.023350
1461.1164,0.023923
1462.9801,0.023540
1464.8438,0.022746
1466.7074,0.022712
1468.5711,0.022759
1470.4348,0.022145
1472.2984,0.020915
1474.1621,0.020565
1476.0258,0.020545
1477.8895,0.020503
1479.7531,0.020348
1481.6168,0.019980
1483.4805,0.019986
1485.3441,0.019824
1487.2078,0.019227
1489.0715,0.018532
1490.9351,0.018307
1492.7988,0.018649
1494.6625,0.018357
1496.5261,0.017446
1498.3898,0.017220
1500.2535,0.017364
1502.1171,0.017611
1503.9808,0.017549
1505.8445,0.016265
1507.7082,0.015201
1509.5718,0.015995
1511.4355,0.016287
1513.2992,0.016264
1515.1628,0.015954
1517.0265,0.015396
1518.8902,0.015243
1520.7538,0.014536
1522.6175,0.014105
1524.4812,0.014346
1526.3448,0.014229
1528.2085,0.014350
1530.0722,0.014405
1531.9359,0.014069
1533.7995,0.013681
1535.6632,0.013967
1537.5269,0.013737
1539.3905,0.012334
1541.2542,0.011703
1543.1179,0.011951
1544.9815,0.011916
1546.8452,0.012168
1548.7089,0.012108
1550.5725,0.011910
1552.4362,0.011965
1554.2999,0.011768
1556.1635,0.011643
1558.0272,0.010694
1559.8909,0.009746
1561.7546,0.010695
1563.6182,0.011018
1565.4819,0.011109
1567.3456,0.011229
1569.2092,0.010921
1571.0729,0.010917
1572.9366,0.011330
1574.8002,0.011114
1576.6639,0.010596
1578.5276,0.011038
1580.3912,0.011325
1582.2549,0.011400
1584.1186,0.011620
1585.9822,0.011772
1587.8459,0.011850
1589.7096,0.011841
1591.5733,0.011896
1593.4369,0.011971
1595.3006,0.012111
1597.1643,0.012127
1599.0279,0.012175
1600.8916,0.012345
1602.7553,0.012593
1604.6189,0.012902
1606.4826,0.013185
1608.3463,0.013236
1610.2099,0.013383
1612.0736,0.013711
1613.9373,0.014089
1615.8010,0.013927
1617.6646,0.013867
1619.5283,0.014555
1621.3920,0.014825
1623.2556,0.014698
1625.1193,0.015040
1626.9830,0.015206
1628.8466,0.015280
1630.7103,0.015880
1632.5740,0.016261
1634.4376,0.015610
1636.3013,0.014779
1638.1650,0.015400
1640.0286,0.015944
1641.8923,0.016319
1643.7560,0.016423
1645.6197,0.015902
1647.4833,0.015467
1649.3470,0.015919
1651.2107,0.015825
1653.0743,0.014183
1654.9380,0.014194
1656.8017,0.015043
1658.6653,0.015109
1660.5290,0.014896
1662.3927,0.014436
1664.2563,0.014347
1666.1200,0.014538
1667.9837,0.014120
1669.8474,0.013151
1671.7110,0.013037
1673.5747,0.013106
1675.4384,0.012495
1677.3020,0.012304
1679.1657,0.012477
1681.0294,0.012474
1682.8930,0.011768
1684.7567,0.010202
1686.6204,0.010416
1688.4840,0.010652
1690.3477,0.010343
1692.2114,0.010246
1694.0750,0.010150
1695.9387,0.009361
1697.8024,0.009255
1699.6661,0.008756
1701.5297,0.007926
1703.3934,0.008275
1705.2571,0.007988
1707.1207,0.007651
1708.9844,0.007787
1710.8481,0.007901
1712.7117,0.007936
1714.5754,0.007657
1716.4391,0.007046
1718.3027,0.006502
1720.1664,0.006730
1722.0301,0.007032
1723.8937,0.007095
1725.7574,0.007188
1727.6211,0.007119
1729.4848,0.006998
1731.3484,0.007106
1733.2121,0.006701
1735.0758,0.006008
1736.9394,0.006363
1738.8031,0.006513
1740.6668,0.006560
1742.5304,0.006691
1744.3941,0.006742
1746.2578,0.006646
1748.1214,0.006453
1749.9851,0.006269
1751.8488,0.006148
1753.7125,0.006373
1755.5761,0.006466
1757.4398,0.006400
1759.3035,0.006577
1761.1671,0.006454
1763.0308,0.006304
1764.8945,0.006515
1766.7581,0.006568
1768.6218,0.006497
1770.4855,0.006605
1772.3491,0.006139
1774.2128,0.005791
1776.0765,0.006119
1777.9401,0.006430
1779.8038,0.006321
1781.6675,0.006370
1783.5312,0.006599
1785.3948,0.006605
1787.2585,0.006838
1789.1222,0.007069
1790.9858,0.006847
1792.8495,0.006535
1794.7132,0.006688
1796.5768,0.006950
1798.4405,0.007078
1800.3042,0.006878
1802.1678,0.006634
1804.0315,0.006663
1805.8952,0.006602
1807.7589,0.006639
1809.6225,0.006717
1811.4862,0.006774
1813.3499,0.006750
1815.2135,0.006683
1817.0772,0.006530
1818.9409,0.006416
1820.8045,0.006710
1822.6682,0.006930
1824.5319,0.006533
1826.3955,0.006151
1828.2592,0.006189
1830.1229,0.006204
1831.9865,0.006218
1833.8502,0.006386
1835.7139,0.006530
1837.5776,0.006551
1839.4412,0.006742
1841.3049,0.006917
1843.1686,0.006919
1845.0322,0.006468
1846.8959,0.006115
1848.7596,0.006244
1850.6232,0.006639
1852.4869,0.006808
1854.3506,0.006763
1856.2142,0.006723
1858.0779,0.006548
1859.9416,0.006457
1861.8052,0.006671
1863.6689,0.006820
1865.5326,0.006778
1867.3963,0.006853
1869.2599,0.006749
1871.1236,0.006413
1872.9873,0.006544
1874.8509,0.006845
1876.7146,0.006561
1878.5783,0.006218
1880.4419,0.006349
1882.3056,0.006632
1884.1693,0.006681
1886.0329,0.006654
1887.8966,0.006761
1889.7603,0.006735
1891.6240,0.006805
1893.4876,0.006844
1895.3513,0.006976
1897.2150,0.007122
1899.0786,0.006853
1900.9423,0.006605
1902.8060,0.006865
1904.6696,0.006903
1906.5333,0.006879
1908.3970,0.006980
1910.2606,0.006846
1912.1243,0.006681
1913.9880,0.006613
1915.8516,0.006856
1917.7153,0.006825
1919.5790,0.006887
1921.4427,0.006961
1923.3063,0.006615
1925.1700,0.006749
1927.0337,0.006736
1928.8973,0.006655
1930.7610,0.007127
1932.6247,0.007172
1934.4883,0.006697
1936.3520,0.006454
1938.2157,0.006865
1940.0793,0.007033
1941.9430,0.006673
1943.8067,0.006563
1945.6704,0.006234
1947.5340,0.006506
1949.3977,0.006628
1951.2614,0.006367
1953.1250,0.006622
1954.9887,0.007057
1956.8524,0.006867
1958.7160,0.006435
1960.5797,0.006922
1962.4434,0.006985
1964.3070,0.006172
1966.1707,0.006304
1968.0344,0.006896
1969.8980,0.007196
1971.7617,0.007032
1973.6254,0.007323
1975.4891,0.007520
1977.3527,0.007561
1979.2164,0.007200
1981.0801,0.006616
1982.9437,0.006887
1984.8074,0.007422
1986.6711,0.007284
1988.5347,0.007041
1990.3984,0.007210
1992.2621,0.007262
1994.1257,0.007502
1995.9894,0.007411
1997.8531,0.006959
1999.7167,0.006074
2001.5804,0.006189
2003.4441,0.006774
2005.3078,0.006882
2007.1714,0.007136
2009.0351,0.007254
2010.8988,0.007423
2012.7624,0.007539
2014.6261,0.007073
2016.4898,0.006633
2018.3534,0.006583
2020.2171,0.006583
2022.0808,0.006625
2023.9444,0.006342
2025.8081,0.005892
2027.6718,0.006460
2029.5355,0.006788
2031.3991,0.005977
2033.2628,0.005973
2035.1265,0.007123
2036.9901,0.007961
2038.8538,0.008336
2040.7175,0.007742
2042.5811,0.007188
2044.4448,0.007149
2046.3085,0.007202
2048.1721,0.006880
2050.0358,0.007538
2051.8995,0.008067
2053.7631,0.007600
2055.6268,0.007131
2057.4905,0.007394
2059.3542,0.008032
2061.2178,0.007986
2063.0815,0.007607
2064.9452,0.007856
2066.8088,0.007892
2068.6725,0.007773
2070.5362,0.007879
2072.3998,0.007908
2074.2635,0.007446
2076.1272,0.007528
2077.9908,0.007781
2079.8545,0.007651
2081.7182,0.007635
2083.5819,0.007713
2085.4455,0.007683
2087.3092,0.007631
2089.1729,0.008085
2091.0365,0.008622
2092.9002,0.008008
2094.7639,0.007055
2096.6275,0.007074
2098.4912,0.007522
2100.3549,0.007756
2102.2185,0.007963
2104.0822,0.007807
2105.9459,0.007585
2107.8095,0.008093
2109.6732,0.008320
2111.5369,0.007850
2113.4006,0.007843
2115.2642,0.007895
2117.1279,0.007695
2118.9916,0.007734
2120.8552,0.007751
2122.7189,0.007996
2124.5826,0.008076
2126.4462,0.008040
2128.3099,0.007831
2130.1736,0.007472
2132.0372,0.007155
2133.9009,0.006842
2135.7646,0.007039
2137.6282,0.007658
2139.4919,0.008281
2141.3556,0.008117
2143.2193,0.007717
2145.0829,0.007668
2146.9466,0.007521
2148.8103,0.006968
2150.6739,0.007142
2152.5376,0.007091
2154.4013,0.006725
2156.2649,0.005853
2158.1286,0.005823
2159.9923,0.007198
2161.8559,0.007850
2163.7196,0.007622
2165.5833,0.007755
2167.4470,0.008281
2169.3106,0.008167
2171.1743,0.007940
2173.0380,0.008264
2174.9016,0.008125
2176.7653,0.007523
2178.6290,0.007189
2180.4926,0.006998
2182.3563,0.006858
2184.2200,0.007817
2186.0836,0.008625
2187.9473,0.008265
2189.8110,0.007457
2191.6746,0.007125
2193.5383,0.007279
2195.4020,0.007463
2197.2657,0.007867
2199.1293,0.008575
2200.9930,0.009128
2202.8567,0.008275
2204.7203,0.007369
2206.5840,0.007655
2208.4477,0.007969
2210.3113,0.008282
2212.1750,0.007595
2214.0387,0.006956
2215.9023,0.007350
2217.7660,0.007978
2219.6297,0.008090
2221.4934,0.007760
2223.3570,0.007660
2225.2207,0.007407
2227.0844,0.007230
2228.9480,0.008016
2230.8117,0.008261
2232.6754,0.008011
2234.5390,0.008333
2236.4027,0.008616
2238.2664,0.008276
2240.1300,0.007661
2241.9937,0.007782
2243.8574,0.008166
2245.7210,0.008430
2247.5847,0.008024
2249.4484,0.007906
2251.3121,0.008299
2253.1757,0.008576
2255.0394,0.008393
2256.9031,0.007964
2258.7667,0.007917
2260.6304,0.007707
2262.4941,0.007587
2264.3577,0.007928
2266.2214,0.008489
2268.0851,0.008798
2269.9487,0.008501
2271.8124,0.008001
2273.6761,0.008058
2275.5397,0.008356
2277.4034,0.008789
2279.2671,0.008824
2281.1308,0.008271
2282.9944,0.007984
2284.8581,0.008515
2286.7218,0.009207
2288.5854,0.009270
2290.4491,0.008660
2292.3128,0.008438
2294.1764,0.008713
2296.0401,0.008850
2297.9038,0.008805
2299.7674,0.008674
2301.6311,0.008445
2303.4948,0.008320
2305.3585,0.008765
2307.2221,0.009139
2309.0858,0.008939
2310.9495,0.009112
2312.8131,0.009371
2314.6768,0.009221
2316.5405,0.009366
2318.4041,0.009425
2320.2678,0.009418
2322.1315,0.009425
2323.9951,0.009609
2325.8588,0.009395
2327.7225,0.009336
2329.5861,0.009522
2331.4498,0.009364
2333.3135,0.009154
2335.1772,0.009206
2337.0408,0.009485
2338.9045,0.009684
2340.7682,0.009841
2342.6318,0.009681
2344.4955,0.009346
2346.3592,0.009106
2348.2228,0.009025
2350.0865,0.009335
2351.9502,0.009871
2353.8138,0.009937
2355.6775,0.010053
2357.5412,0.010408
2359.4049,0.010482
2361.2685,0.010023
2363.1322,0.009637
2364.9959,0.009702
2366.8595,0.009703
2368.7232,0.009507
2370.5869,0.009355
2372.4505,0.009158
2374.3142,0.009171
2376.1779,0.008985
2378.0415,0.008689
2379.9052,0.008473
2381.7689,0.008599
2383.6325,0.008608
2385.4962,0.008484
2387.3599,0.008425
2389.2236,0.008570
2391.0872,0.008474
2392.9509,0.008289
2394.8146,0.008358
2396.6782,0.008561
2398.5419,0.008605
2400.4056,0.008409
2402.2692,0.008498
2404.1329,0.008626
2405.9966,0.008588
2407.8602,0.008547
2409.7239,0.008281
2411.5876,0.008313
2413.4512,0.008457
2415.3149,0.008539
2417.1786,0.008392
2419.0423,0.008657
2420.9059,0.008835
2422.7696,0.008719
2424.6333,0.008575
2426.4969,0.008482
2428.3606,0.008385
2430.2243,0.008278
2432.0879,0.008496
2433.9516,0.008593
2435.8153,0.008708
2437.6789,0.008660
2439.5426,0.008510
2441.4063,0.008878
2443.2700,0.008994
2445.1336,0.008814
2446.9973,0.008855
2448.8610,0.008670
2450.7246,0.008529
2452.5883,0.008421
2454.4520,0.008702
2456.3156,0.009016
2458.1793,0.008900
2460.0430,0.008592
2461.9066,0.008540
2463.7703,0.008601
2465.6340,0.008594
2467.4976,0.008568
2469.3613,0.008902
2471.2250,0.009007
2473.0887,0.008726
2474.9523,0.008864
2476.8160,0.008980
2478.6797,0.008755
2480.5433,0.008912
2482.4070,0.008810
2484.2707,0.008490
2486.1343,0.008634
2487.9980,0.008727
2489.8617,0.008628
2491.7253,0.008828
2493.5890,0.008932
2495.4527,0.008977
2497.3164,0.008856
2499.1800,0.008911
2501.0437,0.009122
2502.9074,0.009101
2504.7710,0.009051
2506.6347,0.008809
2508.4984,0.008881
2510.3620,0.008922
2512.2257,0.008968
2514.0894,0.009007
2515.9530,0.009134
2517.8167,0.008944
2519.6804,0.008678
2521.5440,0.008855
2523.4077,0.008867
2525.2714,0.008919
2527.1351,0.008993
2528.9987,0.008762
2530.8624,0.008774
2532.7261,0.008803
2534.5897,0.008646
2536.4534,0.008240
2538.3171,0.008412
2540.1807,0.008813
2542.0444,0.008805
2543.9081,0.008712
2545.7717,0.008694
2547.6354,0.008537
2549.4991,0.008322
2551.3627,0.008605
2553.2264,0.009038
2555.0901,0.009028
2556.9538,0.008793
2558.8174,0.008675
2560.6811,0.008352
2562.5448,0.008439
2564.4084,0.008693
2566.2721,0.008616
2568.1358,0.008581
2569.9994,0.008703
2571.8631,0.009118
2573.7268,0.009172
2575.5904,0.008705
2577.4541,0.008672
2579.3178,0.008750
2581.1815,0.009158
2583.0451,0.009159
2584.9088,0.009181
2586.7725,0.009041
2588.6361,0.008708
2590.4998,0.008570
2592.3635,0.008391
2594.2271,0.008244
2596.0908,0.008242
2597.9545,0.008687
2599.8181,0.009095
2601.6818,0.009195
2603.5455,0.009114
2605.4091,0.008832
2607.2728,0.008372
2609.1365,0.008384
2611.0002,0.008916
2612.8638,0.009109
2614.7275,0.008786
2616.5912,0.008474
2618.4548,0.008623
2620.3185,0.008693
2622.1822,0.008768
2624.0458,0.008825
2625.9095,0.008926
2627.7732,0.009129
2629.6368,0.009231
2631.5005,0.008958
2633.3642,0.008945
2635.2279,0.009117
2637.0915,0.008967
2638.9552,0.008819
2640.8189,0.008981
2642.6825,0.008903
2644.5462,0.008776
2646.4099,0.008778
2648.2735,0.008765
2650.1372,0.008996
2652.0009,0.009185
2653.8645,0.009134
2655.7282,0.009110
2657.5919,0.009105
2659.4555,0.009052
2661.3192,0.008846
2663.1829,0.008830
2665.0466,0.008830
2666.9102,0.008644
2668.7739,0.008495
2670.6376,0.008479
2672.5012,0.008542
2674.3649,0.008766
2676.2286,0.009044
2678.0922,0.009191
2679.9559,0.009263
2681.8196,0.009223
2683.6832,0.008758
2685.5469,0.008505
2687.4106,0.008754
2689.2742,0.009033
2691.1379,0.009203
2693.0016,0.009010
2694.8653,0.008781
2696.7289,0.008888
2698.5926,0.009067
2700.4563,0.008857
2702.3199,0.008934
2704.1836,0.009245
2706.0473,0.009228
2707.9109,0.009001
2709.7746,0.008852
2711.6383,0.008897
2713.5019,0.008914
2715.3656,0.009132
2717.2293,0.009471
2719.0930,0.009442
2720.9566,0.009141
2722.8203,0.009036
2724.6840,0.009080
2726.5476,0.009187
2728.4113,0.009247
2730.2750,0.009202
2732.1386,0.009031
2734.0023,0.008944
2735.8660,0.009110
2737.7296,0.009202
2739.5933,0.009193
2741.4570,0.009131
2743.3206,0.008901
2745.1843,0.008929
2747.0480,0.009331
2748.9117,0.009276
2750.7753,0.009010
2752.6390,0.009081
2754.5027,0.009141
2756.3663,0.009051
2758.2300,0.008973
2760.0937,0.009072
2761.9573,0.009323
2763.8210,0.009237
2765.6847,0.009425
2767.5483,0.009558
2769.4120,0.009290
2771.2757,0.009180
2773.1394,0.009312
2775.0030,0.009445
2776.8667,0.009315
2778.7304,0.009170
2780.5940,0.009227
2782.4577,0.009281
2784.3214,0.009281
2786.1850,0.009178
2788.0487,0.008987
2789.9124,0.009125
2791.7760,0.009364
2793.6397,0.009512
2795.5034,0.009704
2797.3670,0.009524
2799.2307,0.009073
2801.0944,0.009168
2802.9581,0.009361
2804.8217,0.009391
2806.6854,0.009508
2808.5491,0.009728
2810.4127,0.009605
2812.2764,0.009250
2814.1401,0.008928
2816.0037,0.009006
2817.8674,0.009314
2819.7311,0.009253
2821.5947,0.009096
2823.4584,0.009353
2825.3221,0.009571
2827.1857,0.009408
2829.0494,0.009423
2830.9131,0.009449
2832.7768,0.009258
2834.6404,0.009130
2836.5041,0.009151
2838.3678,0.009399
2840.2314,0.009801
2842.0951,0.010011
2843.9588,0.009887
2845.8224,0.009774
2847.6861,0.009684
2849.5498,0.009437
2851.4134,0.009333
2853.2771,0.009496
2855.1408,0.009808
2857.0045,0.009779
2858.8681,0.009668
2860.7318,0.009852
2862.5955,0.009854
2864.4591,0.009915
2866.3228,0.010257
2868.1865,0.010304
2870.0501,0.009886
2871.9138,0.009792
2873.7775,0.010031
2875.6411,0.009887
2877.5048,0.009765
2879.3685,0.010206
2881.2321,0.010408
2883.0958,0.009993
2884.9595,0.009738
2886.8232,0.009902
2888.6868,0.010199
2890.5505,0.010307
2892.4142,0.010073
2894.2778,0.009842
2896.1415,0.009748
2898.0052,0.009692
2899.8688,0.009781
2901.7325,0.009858
2903.5962,0.010344
2905.4598,0.010306
2907.3235,0.009890
2909.1872,0.010014
2911.0509,0.010327
2912.9145,0.010347
2914.7782,0.010154
2916.6419,0.009908
2918.5055,0.010042
2920.3692,0.010561
2922.2329,0.010683
2924.0965,0.010294
2925.9602,0.010188
2927.8239,0.010411
2929.6875,0.010353
2931.5512,0.010037
2933.4149,0.009939
2935.2785,0.010324
2937.1422,0.010649
2939.0059,0.010362
2940.8696,0.010012
2942.7332,0.010198
2944.5969,0.010420
2946.4606,0.010532
2948.3242,0.010461
2950.1879,0.010355
2952.0516,0.010591
2953.9152,0.010715
2955.7789,0.010436
2957.6426,0.010365
2959.5062,0.010614
2961.3699,0.010346
2963.2336,0.009872
2965.0972,0.010155
2966.9609,0.010464
2968.8246,0.010268
2970.6883,0.010382
2972.5519,0.010505
2974.4156,0.010558
2976.2793,0.010568
2978.1429,0.010222
2980.0066,0.010244
2981.8703,0.010525
2983.7339,0.010402
2985.5976,0.010303
2987.4613,0.010473
2989.3249,0.010612
2991.1886,0.010901
2993.0523,0.011065
2994.9160,0.010544
2996.7796,0.010200
2998.6433,0.010418
3000.5070,0.010667
3002.3706,0.010802
3004.2343,0.011027
3006.0980,0.010872
3007.9616,0.010435
3009.8253,0.010511
3011.6890,0.010480
3013.5526,0.010642
3015.4163,0.010868
3017.2800,0.010248
3019.1436,0.009804
3021.0073,0.010108
3022.8710,0.010683
3024.7347,0.011043
3026.5983,0.011065
3028.4620,0.011065
3030.3257,0.011234
3032.1893,0.011374
3034.0530,0.011270
3035.9167,0.011019
3037.7803,0.010796
3039.6440,0.011159
3041.5077,0.011532
3043.3713,0.011375
3045.2350,0.011382
3047.0987,0.011605
3048.9624,0.011481
3050.8260,0.011278
3052.6897,0.011398
3054.5534,0.011337
3056.4170,0.011218
3058.2807,0.011562
3060.1444,0.011891
3062.0080,0.012087
3063.8717,0.012135
3065.7354,0.011917
3067.5990,0.011526
3069.4627,0.011297
3071.3264,0.011357
3073.1900,0.011899
3075.0537,0.012452
3076.9174,0.012298
3078.7811,0.011934
3080.6447,0.011778
3082.5084,0.012016
3084.3721,0.012793
3086.2357,0.012911
3088.0994,0.012138
3089.9631,0.012068
3091.8267,0.012543
3093.6904,0.012640
3095.5541,0.012575
3097.4177,0.012726
3099.2814,0.012666
3101.1451,0.012742
3103.0087,0.013206
3104.8724,0.012995
3106.7361,0.012422
3108.5998,0.012291
3110.4634,0.012407
3112.3271,0.012666
3114.1908,0.012822
3116.0544,0.012737
3117.9181,0.012939
3119.7818,0.013112
3121.6454,0.012933
3123.5091,0.012948
3125.3728,0.012952
3127.2364,0.013072
3129.1001,0.013613
3130.9638,0.013929
3132.8275,0.013769
3134.6911,0.013582
3136.5548,0.013564
3138.4185,0.013436
3140.2821,0.013684
3142.1458,0.014138
3144.0095,0.014331
3145.8731,0.014025
3147.7368,0.013641
3149.6005,0.013798
3151.4641,0.014003
3153.3278,0.013687
3155.1915,0.013425
3157.0551,0.014144
3158.9188,0.014946
3160.7825,0.014650
3162.6462,0.013960
3164.5098,0.013846
3166.3735,0.014396
3168.2372,0.014934
3170.1008,0.014672
3171.9645,0.014261
3173.8282,0.014321
3175.6918,0.014606
3177.5555,0.014509
3179.4192,0.014008
3181.2828,0.014296
3183.1465,0.014521
3185.0102,0.014073
3186.8739,0.014457
3188.7375,0.015155
3190.6012,0.015423
3192.4649,0.015759
3194.3285,0.015569
3196.1922,0.015194
3198.0559,0.015767
3199.9195,0.016174
3201.7832,0.015272
3203.6469,0.015138
3205.5105,0.015749
3207.3742,0.015442
3209.2379,0.015390
3211.1015,0.015578
3212.9652,0.015714
3214.8289,0.016287
3216.6926,0.015356
3218.5562,0.014422
3220.4199,0.015627
3222.2836,0.016834
3224.1472,0.016687
3226.0109,0.015722
3227.8746,0.015827
3229.7382,0.017044
3231.6019,0.016970
3233.4656,0.016521
3235.3292,0.016540
3237.1929,0.016067
3239.0566,0.016211
3240.9202,0.017013
3242.7839,0.016753
3244.6476,0.015959
3246.5113,0.016036
3248.3749,0.016553
3250.2386,0.016806
3252.1023,0.016842
3253.9659,0.016268
3255.8296,0.016438
3257.6933,0.017044
3259.5569,0.016551
3261.4206,0.016494
3263.2843,0.016567
3265.1479,0.016424
3267.0116,0.017261
3268.8753,0.017836
3270.7390,0.016707
3272.6026,0.016047
3274.4663,0.016879
3276.3300,0.017373
3278.1936,0.017214
3280.0573,0.017398
3281.9210,0.017661
3283.7846,0.016533
3285.6483,0.015766
3287.5120,0.016609
3289.3756,0.017696
3291.2393,0.017482
3293.1030,0.017073
3294.9666,0.017316
3296.8303,0.017291
3298.6940,0.017323
3300.5577,0.017750
3302.4213,0.017339
3304.2850,0.016153
3306.1487,0.016319
3308.0123,0.017167
3309.8760,0.017450
3311.7397,0.017427
3313.6033,0.017368
3315.4670,0.016710
3317.3307,0.016895
3319.1943,0.017496
3321.0580,0.017069
3322.9217,0.016833
3324.7854,0.016803
3326.6490,0.017366
3328.5127,0.017550
3330.3764,0.017181
3332.2400,0.016745
3334.1037,0.016742
3335.9674,0.017616
3337.8310,0.017552
3339.6947,0.016560
3341.5584,0.016543
3343.4220,0.017848
3345.2857,0.019189
3347.1494,0.019557
3349.0130,0.017854
3350.8767,0.016876
3352.7404,0.017684
3354.6041,0.017868
3356.4677,0.017575
3358.3314,0.017644
3360.1951,0.017606
3362.0587,0.017863
3363.9224,0.018757
3365.7861,0.018193
3367.6497,0.016268
3369.5134,0.015955
3371.3771,0.016670
3373.2407,0.016501
3375.1044,0.016211
3376.9681,0.016654
3378.8317,0.017681
3380.6954,0.017661
3382.5591,0.017286
3384.4228,0.017228
3386.2864,0.016729
3388.1501,0.017023
3390.0138,0.018356
3391.8774,0.018105
3393.7411,0.017694
3395.6048,0.017280
3397.4684,0.016644
3399.3321,0.017645
3401.1958,0.018595
3403.0594,0.017731
3404.9231,0.016547
3406.7868,0.016697
3408.6505,0.017579
3410.5141,0.016845
3412.3778,0.016012
3414.2415,0.016398
3416.1051,0.016604
3417.9688,0.015574
3419.8325,0.015408
3421.6961,0.016881
3423.5598,0.017485
3425.4235,0.016896
3427.2871,0.016507
3429.1508,0.016190
3431.0145,0.015947
3432.8781,0.016059
3434.7418,0.016074
3436.6055,0.015514
3438.4692,0.015438
3440.3328,0.016009
3442.1965,0.016714
3444.0602,0.016897
3445.9238,0.016848
3447.7875,0.015745
3449.6512,0.015313
3451.5148,0.015913
3453.3785,0.015638
3455.2422,0.015135
3457.1058,0.015817
3458.9695,0.015583
3460.8332,0.015010
3462.6969,0.015239
3464.5605,0.015811
3466.4242,0.015468
3468.2879,0.014284
3470.1515,0.013394
3472.0152,0.014268
3473.8789,0.016125
3475.7425,0.015975
3477.6062,0.014671
3479.4699,0.015449
3481.3335,0.016464
3483.1972,0.015637
3485.0609,0.013969
3486.9245,0.014805
3488.7882,0.015564
3490.6519,0.014583
3492.5156,0.014857
3494.3792,0.015442
3496.2429,0.015134
3498.1066,0.014754
3499.9702,0.013778
3501.8339,0.013753
3503.6976,0.014624
3505.5612,0.014763
3507.4249,0.015453
3509.2886,0.014959
3511.1522,0.013926
3513.0159,0.014485
3514.8796,0.014290
3516.7432,0.013771
3518.6069,0.014255
3520.4706,0.013321
3522.3343,0.013314
3524.1979,0.014431
3526.0616,0.014091
3527.9253,0.014327
3529.7889,0.015510
3531.6526,0.015431
3533.5163,0.014519
3535.3799,0.014297
3537.2436,0.013889
3539.1073,0.013024
3540.9709,0.013738
3542.8346,0.014360
3544.6983,0.013746
3546.5620,0.013364
3548.4256,0.013547
3550.2893,0.014128
3552.1530,0.014500
3554.0166,0.014999
3555.8803,0.014903
3557.7440,0.014477
3559.6076,0.013890
3561.4713,0.013491
3563.3350,0.013836
3565.1986,0.013680
3567.0623,0.012453
3568.9260,0.012772
3570.7896,0.014190
3572.6533,0.014590
3574.5170,0.013587
3576.3807,0.012836
3578.2443,0.013315
3580.1080,0.013408
3581.9717,0.013281
3583.8353,0.014191
3585.6990,0.014452
3587.5627,0.013348
3589.4263,0.011974
3591.2900,0.012121
3593.1537,0.012905
3595.0173,0.012460
3596.8810,0.011612
3598.7447,0.012522
3600.6084,0.012821
3602.4720,0.011951
3604.3357,0.012383
3606.1994,0.012949
3608.0630,0.012941
3609.9267,0.012337
3611.7904,0.012320
3613.6540,0.012744
3615.5177,0.012791
3617.3814,0.013018
3619.2450,0.011758
3621.1087,0.010124
3622.9724,0.011054
3624.8360,0.013032
3626.6997,0.012882
3628.5634,0.011986
3630.4271,0.011177
3632.2907,0.010380
3634.1544,0.011467
3636.0181,0.011891
3637.8817,0.011554
3639.7454,0.011051
3641.6091,0.010601
3643.4727,0.011220
3645.3364,0.011394
3647.2001,0.011190
3649.0637,0.010150
3650.9274,0.009129
3652.7911,0.009722
3654.6547,0.010190
3656.5184,0.010282
3658.3821,0.010254
3660.2458,0.010587
3662.1094,0.010454
3663.9731,0.010412
3665.8368,0.010605
3667.7004,0.011095
3669.5641,0.011290
3671.4278,0.011236
3673.2914,0.010860
3675.1551,0.009885
3677.0188,0.009629
3678.8824,0.009691
3680.7461,0.009913
3682.6098,0.011020
3684.4735,0.011510
3686.3371,0.010327
3688.2008,0.008912
3690.0645,0.008134
3691.9281,0.007251
3693.7918,0.006936
3695.6555,0.006906
3697.5191,0.006800
3699.3828,0.007161
3701.2465,0.006604
3703.1101,0.005334
3704.9738,0.005013
3706.8375,0.006128
3708.7011,0.006996
3710.5648,0.006788
3712.4285,0.006387
3714.2922,0.005553
3716.1558,0.005271
3718.0195,0.005583
3719.8832,0.005711
3721.7468,0.006413
3723.6105,0.006144
3725.4742,0.004661
3727.3378,0.003574
3729.2015,0.004037
3731.0652,0.004741
3732.9288,0.004414
3734.7925,0.003692
3736.6562,0.003695
3738.5199,0.003461
3740.3835,0.003855
3742.2472,0.004798
3744.1109,0.005136
3745.9745,0.004431
3747.8382,0.003969
3749.7019,0.003739
3751.5655,0.002871
3753.4292,0.003311
3755.2929,0.003446
3757.1565,0.003176
3759.0202,0.003543
3760.8839,0.003492
3762.7475,0.003351
3764.6112,0.003789
3766.4749,0.003499
3768.3386,0.003324
3770.2022,0.003508
3772.0659,0.002999
3773.9296,0.003169
3775.7932,0.003881
3777.6569,0.003706
3779.5206,0.003308
3781.3842,0.004119
3783.2479,0.004607
3785.1116,0.003944
3786.9752,0.004121
3788.8389,0.004236
3790.7026,0.003540
3792.5662,0.003847
3794.4299,0.004231
3796.2936,0.004272
3798.1573,0.003882
3800.0209,0.003702
3801.8846,0.004123
3803.7483,0.003155
3805.6119,0.002800
3807.4756,0.003434
3809.3393,0.003834
3811.2029,0.004080
3813.0666,0.004334
3814.9303,0.004208
3816.7939,0.004218
3818.6576,0.003716
3820.5213,0.003511
3822.3850,0.003593
3824.2486,0.004077
3826.1123,0.004651
3827.9760,0.004584
3829.8396,0.004763
3831.7033,0.005100
3833.5670,0.004980
3835.4306,0.004527
3837.2943,0.003980
3839.1580,0.003533
3841.0216,0.003305
3842.8853,0.003054
3844.7490,0.003691
3846.6126,0.004067
3848.4763,0.003805
3850.3400,0.004160
3852.2037,0.004949
3854.0673,0.004513
3855.9310,0.002784
3857.7947,0.002941
3859.6583,0.003963
3861.5220,0.004674
3863.3857,0.004304
3865.2493,0.003813
3867.1130,0.003920
3868.9767,0.004388
3870.8403,0.004054
3872.7040,0.003855
3874.5677,0.004455
3876.4314,0.004124
3878.2950,0.004220
3880.1587,0.004421
3882.0224,0.004169
3883.8860,0.004778
3885.7497,0.005307
3887.6134,0.004528
3889.4770,0.004132
3891.3407,0.004204
3893.2044,0.003768
3895.0680,0.003804
3896.9317,0.004397
3898.7954,0.004648
3900.6590,0.004943
3902.5227,0.004534
3904.3864,0.003777
3906.2501,0.003321
3908.1137,0.003821
3909.9774,0.004326
3911.8411,0.004485
3913.7047,0.005154
3915.5684,0.005122
3917.4321,0.004247
3919.2957,0.003695
3921.1594,0.003549
3923.0231,0.004208
3924.8867,0.004304
3926.7504,0.004132
3928.6141,0.004508
3930.4777,0.004778
3932.3414,0.004743
3934.2051,0.004495
3936.0688,0.004647
3937.9324,0.004495
3939.7961,0.004379
3941.6598,0.005205
3943.5234,0.004975
3945.3871,0.004536
3947.2508,0.004025
3949.1144,0.004555
3950.9781,0.004854
3952.8418,0.004427
3954.7054,0.004312
3956.5691,0.003631
3958.4328,0.003760
3960.2965,0.004058
3962.1601,0.004317
3964.0238,0.005009
3965.8875,0.005103
3967.7511,0.004889
3969.6148,0.004953
3971.4785,0.004946
3973.3421,0.005066
3975.2058,0.005453
3977.0695,0.005664
3978.9331,0.005461
3980.7968,0.005404
3982.6605,0.005238
3984.5241,0.004374
3986.3878,0.004031
3988.2515,0.004849
3990.1152,0.004986
3991.9788,0.004405
3993.8425,0.004821
3995.7062,0.004812
3997.5698,0.004608
3999.4335,0.005136
4001.2972,0.004830
4003.1608,0.004220
4005.0245,0.004603
4006.8882,0.004592
4008.7518,0.004033
4010.6155,0.003788
4012.4792,0.004365
4014.3429,0.004638
4016.2065,0.004303
4018.0702,0.004474
4019.9339,0.005477
4021.7975,0.005255
4023.6612,0.004441
4025.5249,0.004879
4027.3885,0.005294
4029.2522,0.004759
4031.1159,0.004431
4032.9795,0.004544
4034.8432,0.004946
4036.7069,0.004935
4038.5705,0.005596
4040.4342,0.005572
4042.2979,0.004174
4044.1616,0.003966
4046.0252,0.004631
4047.8889,0.005196
4049.7526,0.005316
4051.6162,0.003941
4053.4799,0.003874
4055.3436,0.004606
4057.2072,0.004724
4059.0709,0.004423
4060.9346,0.004170
4062.7982,0.004251
4064.6619,0.004364
4066.5256,0.004614
4068.3892,0.004583
4070.2529,0.004878
4072.1166,0.004952
4073.9803,0.005427
4075.8439,0.004640
4077.7076,0.004139
4079.5713,0.004734
4081.4349,0.005109
4083.2986,0.005421
4085.1623,0.005050
4087.0259,0.004491
4088.8896,0.004590
4090.7533,0.004287
4092.6169,0.004331
4094.4806,0.004669
4096.3443,0.005212
4098.2080,0.004244
4100.0716,0.002818
4101.9353,0.003243
4103.7990,0.004043
4105.6626,0.004878
4107.5263,0.004679
4109.3900,0.004527
4111.2536,0.004589
4113.1173,0.004175
4114.9810,0.004687
4116.8446,0.005151
4118.7083,0.004625
4120.5720,0.003130
4122.4356,0.002764
4124.2993,0.004411
4126.1630,0.004613
4128.0267,0.004278
4129.8903,0.004466
4131.7540,0.004391
4133.6177,0.004235
4135.4813,0.003836
4137.3450,0.003721
4139.2087,0.004509
4141.0723,0.005047
4142.9360,0.004561
4144.7997,0.004898
4146.6633,0.005302
4148.5270,0.005037
4150.3907,0.004210
4152.2544,0.003552
4154.1180,0.003433
4155.9817,0.003323
4157.8454,0.003686
4159.7090,0.003864
4161.5727,0.003946
4163.4364,0.004668
4165.3000,0.004899
4167.1637,0.004564
4169.0274,0.004719
4170.8910,0.005399
4172.7547,0.004777
4174.6184,0.003934
4176.4820,0.004169
4178.3457,0.003500
4180.2094,0.003766
4182.0731,0.004776
4183.9367,0.005330
4185.8004,0.004954
4187.6641,0.004522
4189.5277,0.004165
4191.3914,0.004704
4193.2551,0.004954
4195.1187,0.004343
4196.9824,0.003918
4198.8461,0.004011
4200.7097,0.003947
4202.5734,0.004217
4204.4371,0.004675
4206.3007,0.004751
4208.1644,0.004879
4210.0281,0.004483
4211.8918,0.004019
4213.7554,0.004992
4215.6191,0.004705
4217.4828,0.004373
4219.3464,0.004522
4221.2101,0.004704
4223.0738,0.004440
4224.9374,0.003654
4226.8011,0.004094
4228.6648,0.004849
4230.5284,0.004948
4232.3921,0.004538
4234.2558,0.004100
4236.1195,0.005386
4237.9831,0.005557
4239.8468,0.004087
4241.7105,0.004105
4243.5741,0.003923
4245.4378,0.004172
4247.3015,0.004817
4249.1651,0.004266
4251.0288,0.003543
4252.8925,0.003910
4254.7561,0.004028
4256.6198,0.004259
4258.4835,0.004499
4260.3471,0.004261
4262.2108,0.004963
4264.0745,0.004973
4265.9382,0.003750
4267.8018,0.003610
4269.6655,0.004310
4271.5292,0.004858
4273.3928,0.005040
4275.2565,0.005138
4277.1202,0.004840
4278.9838,0.004443
4280.8475,0.004825
4282.7112,0.004563
4284.5748,0.004196
4286.4385,0.004682
4288.3022,0.004323
4290.1659,0.004869
4292.0295,0.005093
4293.8932,0.004375
4295.7569,0.004346
4297.6205,0.005011
4299.4842,0.004753
4301.3479,0.004644
4303.2115,0.004856
4305.0752,0.005151
4306.9389,0.005079
4308.8025,0.005166
4310.6662,0.005014
4312.5299,0.003886
4314.3935,0.003349
4316.2572,0.004102
4318.1209,0.004252
4319.9846,0.003576
4321.8482,0.004112
4323.7119,0.005571
4325.5756,0.005775
4327.4392,0.005537
4329.3029,0.005863
4331.1666,0.005417
4333.0302,0.005437
4334.8939,0.005279
4336.7576,0.004934
4338.6212,0.005009
4340.4849,0.005064
4342.3486,0.005064
4344.2122,0.005040
4346.0759,0.004527
4347.9396,0.004068
4349.8033,0.004546
4351.6669,0.004506
4353.5306,0.003902
4355.3943,0.003745
4357.2579,0.003621
4359.1216,0.003699
4360.9853,0.004895
4362.8489,0.005567
4364.7126,0.004502
4366.5763,0.004163
4368.4399,0.004831
4370.3036,0.004921
4372.1673,0.004500
4374.0310,0.004753
4375.8946,0.004823
4377.7583,0.004064
4379.6220,0.003756
4381.4856,0.005139
4383.3493,0.005498
4385.2130,0.004850
4387.0766,0.004474
4388.9403,0.004422
4390.8040,0.004633
4392.6676,0.004404
4394.5313,0.004338
4396.3950,0.005045
4398.2586,0.004717
4400.1223,0.004060
4401.9860,0.004249
4403.8497,0.005451
4405.7133,0.005205
4407.5770,0.004289
4409.4407,0.004574
4411.3043,0.005294
4413.1680,0.004795
4415.0317,0.003452
4416.8953,0.003373
4418.7590,0.003509
4420.6227,0.003680
4422.4863,0.004117
4424.3500,0.003639
4426.2137,0.003712
4428.0774,0.005026
4429.9410,0.005298
4431.8047,0.004621
4433.6684,0.004134
4435.5320,0.004486
4437.3957,0.004838
4439.2594,0.004807
4441.1230,0.004814
4442.9867,0.004725
4444.8504,0.004053
4446.7140,0.003418
4448.5777,0.003975
4450.4414,0.005204
4452.3050,0.005786
4454.1687,0.005684
4456.0324,0.006072
4457.8961,0.005525
4459.7597,0.003640
4461.6234,0.003941
4463.4871,0.004960
4465.3507,0.004793
4467.2144,0.003504
4469.0781,0.003385
4470.9417,0.004233
4472.8054,0.005134
4474.6691,0.004699
4476.5327,0.004643
4478.3964,0.004852
4480.2601,0.004842
4482.1237,0.005562
4483.9874,0.005361
4485.8511,0.004481
4487.7148,0.004798
4489.5784,0.004323
4491.4421,0.004417
4493.3058,0.005503
4495.1694,0.005883
4497.0331,0.005128
4498.8968,0.006028
4500.7604,0.006424
