Wavenumber,Intensity
600.1014,0.117871
601.9651,0.111295
603.8287,0.114416
605.6924,0.129950
607.5561,0.135217
609.4197,0.124402
611.2834,0.118206
613.1471,0.118885
615.0107,0.120783
616.8744,0.121397
618.7381,0.124410
620.6017,0.125331
622.4654,0.120385
624.3291,0.117697
626.1928,0.118830
628.0564,0.114417
629.9201,0.109989
631.7838,0.112617
633.6474,0.117179
635.5111,0.118357
637.3748,0.116790
639.2384,0.119340
641.1021,0.121102
642.9658,0.117263
644.8294,0.115025
646.6931,0.115429
648.5568,0.116634
650.4205,0.115722
652.2841,0.114231
654.1478,0.112124
656.0115,0.110260
657.8751,0.110227
659.7388,0.110289
661.6025,0.109558
663.4661,0.108810
665.3298,0.108467
667.1935,0.107492
669.0571,0.106309
670.9208,0.106923
672.7845,0.107250
674.6481,0.107539
676.5118,0.107000
678.3755,0.104916
680.2392,0.103721
682.1028,0.102322
683.9665,0.100018
685.8302,0.097685
687.6938,0.096029
689.5575,0.094418
691.4212,0.092460
693.2848,0.089774
695.1485,0.088074
697.0122,0.086393
698.8758,0.084807
700.7395,0.084585
702.6032,0.084711
704.4669,0.084400
706.3305,0.084901
708.1942,0.086204
710.0579,0.086688
711.9215,0.086806
713.7852,0.087498
715.6489,0.088309
717.5125,0.090162
719.3762,0.091806
721.2399,0.092050
723.1035,0.092185
724.9672,0.093179
726.8309,0.093395
728.6945,0.092116
730.5582,0.091280
732.4219,0.091260
734.2856,0.090322
736.1492,0.089790
738.0129,0.090180
739.8766,0.089870
741.7402,0.089759
743.6039,0.089548
745.4676,0.088647
747.3312,0.088357
749.1949,0.088179
751.0586,0.087904
752.9222,0.087985
754.7859,0.088279
756.6496,0.088413
758.5132,0.088415
760.3769,0.088559
762.2406,0.088190
764.1043,0.086950
765.9679,0.085554
767.8316,0.084678
769.6953,0.083952
771.5589,0.082838
773.4226,0.081837
775.2863,0.081289
777.1499,0.081030
779.0136,0.080250
780.8773,0.079428
782.7409,0.079301
784.6046,0.079585
786.4683,0.080101
788.3320,0.080655
790.1956,0.080308
792.0593,0.079727
793.9230,0.079269
795.7866,0.078865
797.6503,0.078770
799.5140,0.079119
801.3776,0.079852
803.2413,0.080134
805.1050,0.080506
806.9686,0.081061
808.8323,0.081343
810.6960,0.082065
812.5596,0.083122
814.4233,0.083913
816.2870,0.084374
818.1507,0.084594
820.0143,0.084595
821.8780,0.084385
823.7417,0.084348
825.6053,0.084427
827.4690,0.084772
829.3327,0.085439
831.1963,0.086236
833.0600,0.087190
834.9237,0.088450
836.7873,0.090020
838.6510,0.091495
840.5147,0.093338
842.3784,0.095328
844.2420,0.097347
846.1057,0.099890
847.9694,0.102588
849.8330,0.105295
851.6967,0.108243
853.5604,0.110806
855.4240,0.113336
857.2877,0.116072
859.1514,0.118583
861.0150,0.120919
862.8787,0.123414
864.7424,0.125934
866.6060,0.128349
868.4697,0.130365
870.3334,0.132084
872.1971,0.133877
874.0607,0.135648
875.9244,0.137261
877.7881,0.138997
879.6517,0.140854
881.5154,0.142886
883.3791,0.145194
885.2427,0.147569
887.1064,0.149977
888.9701,0.152759
890.8337,0.155727
892.6974,0.158685
894.5611,0.161767
896.4247,0.165115
898.2884,0.168651
900.1521,0.172016
902.0158,0.175254
903.8794,0.178528
905.7431,0.181584
907.6068,0.184630
909.4704,0.187573
911.3341,0.190314
913.1978,0.192838
915.0614,0.195403
916.9251,0.197781
918.7888,0.200026
920.6524,0.202214
922.5161,0.204448
924.3798,0.206597
926.2435,0.208868
928.1071,0.211232
929.9708,0.213583
931.8345,0.215814
933.6981,0.218412
935.5618,0.221247
937.4255,0.223938
939.2891,0.226541
941.1528,0.229229
943.0165,0.231894
944.8801,0.234367
946.7438,0.236343
948.6075,0.238011
950.4711,0.239066
952.3348,0.239540
954.1985,0.239547
956.0622,0.239246
957.9258,0.238497
959.7895,0.237404
961.6532,0.236469
963.5168,0.235564
965.3805,0.234523
967.2442,0.233549
969.1078,0.232511
970.9715,0.231753
972.8352,0.231225
974.6988,0.230840
976.5625,0.230506
978.4262,0.230312
980.2899,0.230005
982.1535,0.229364
984.0172,0.228383
985.8809,0.227173
987.7445,0.225621
989.6082,0.223799
991.4719,0.221656
993.3355,0.219257
995.1992,0.216568
997.0629,0.213466
998.9265,0.210075
1000.7902,0.206683
1002.6539,0.202995
1004.5175,0.199164
1006.3812,0.195220
1008.2449,0.191203
1010.1086,0.187105
1011.9722,0.182901
1013.8359,0.178461
1015.6996,0.173876
1017.5632,0.169197
1019.4269,0.164604
1021.2906,0.160066
1023.1542,0.155673
1025.0179,0.151360
1026.8816,0.147207
1028.7452,0.143199
1030.6089,0.139315
1032.4726,0.135477
1034.3362,0.131744
1036.1999,0.128064
1038.0636,0.124449
1039.9273,0.120984
1041.7909,0.117698
1043.6546,0.114613
1045.5183,0.111584
1047.3819,0.108793
1049.2456,0.106272
1051.1093,0.103775
1052.9729,0.101395
1054.8366,0.099279
1056.7003,0.097311
1058.5639,0.095336
1060.4276,0.093591
1062.2913,0.091920
1064.1550,0.090192
1066.0186,0.088568
1067.8823,0.087139
1069.7460,0.085731
1071.6096,0.084175
1073.4733,0.082575
1075.3370,0.081036
1077.2006,0.079364
1079.0643,0.077663
1080.9280,0.076037
1082.7916,0.074430
1084.6553,0.072775
1086.5190,0.071080
1088.3826,0.069357
1090.2463,0.067715
1092.1100,0.066074
1093.9737,0.064344
1095.8373,0.062574
1097.7010,0.060846
1099.5647,0.059127
1101.4283,0.057372
1103.2920,0.055670
1105.1557,0.054050
1107.0193,0.052437
1108.8830,0.050809
1110.7467,0.049190
1112.6103,0.047661
1114.4740,0.046246
1116.3377,0.044863
1118.2014,0.043522
1120.0650,0.042289
1121.9287,0.041139
1123.7924,0.040041
1125.6560,0.039003
1127.5197,0.038054
1129.3834,0.037200
1131.2470,0.036545
1133.1107,0.035877
1134.9744,0.035231
1136.8380,0.034751
1138.7017,0.034286
1140.5654,0.033787
1142.4290,0.033313
1144.2927,0.032873
1146.1564,0.032384
1148.0201,0.031915
1149.8837,0.031526
1151.7474,0.031163
1153.6111,0.030714
1155.4747,0.030189
1157.3384,0.029695
1159.2021,0.029159
1161.0657,0.028610
1162.9294,0.028009
1164.7931,0.027338
1166.6567,0.026568
1168.5204,0.025743
1170.3841,0.024958
1172.2477,0.024141
1174.1114,0.023309
1175.9751,0.022578
1177.8388,0.021880
1179.7024,0.021067
1181.5661,0.020243
1183.4298,0.019463
1185.2934,0.018717
1187.1571,0.017931
1189.0208,0.017203
1190.8844,0.016555
1192.7481,0.015820
1194.6118,0.015064
1196.4754,0.014367
1198.3391,0.013758
1200.2028,0.013218
1202.0665,0.012676
1203.9301,0.012137
1205.7938,0.011601
1207.6575,0.011085
1209.5211,0.010652
1211.3848,0.010316
1213.2485,0.009969
1215.1121,0.009596
1216.9758,0.009345
1218.8395,0.009188
1220.7031,0.008956
1222.5668,0.008673
1224.4305,0.008483
1226.2941,0.008351
1228.1578,0.008227
1230.0215,0.008140
1231.8852,0.008076
1233.7488,0.007950
1235.6125,0.007765
1237.4762,0.007603
1239.3398,0.007506
1241.2035,0.007453
1243.0672,0.007357
1244.9308,0.007271
1246.7945,0.007233
1248.6582,0.007218
1250.5218,0.007194
1252.3855,0.007121
1254.2492,0.007028
1256.1129,0.007050
1257.9765,0.007109
1259.8402,0.007071
1261.7039,0.006996
1263.5675,0.006944
1265.4312,0.006900
1267.2949,0.006888
1269.1585,0.006880
1271.0222,0.006858
1272.8859,0.006806
1274.7495,0.006785
1276.6132,0.006773
1278.4769,0.006802
1280.3405,0.006888
1282.2042,0.006868
1284.0679,0.006810
1285.9316,0.006791
1287.7952,0.006802
1289.6589,0.006899
1291.5226,0.007014
1293.3862,0.006984
1295.2499,0.006876
1297.1136,0.006831
1298.9772,0.006868
1300.8409,0.006904
1302.7046,0.006912
1304.5682,0.006945
1306.4319,0.006944
1308.2956,0.006961
1310.1592,0.006972
1312.0229,0.007021
1313.8866,0.007112
1315.7503,0.007166
1317.6139,0.007191
1319.4776,0.007212
1321.3413,0.007196
1323.2049,0.007132
1325.0686,0.007201
1326.9323,0.007336
1328.7959,0.007344
1330.6596,0.007334
1332.5233,0.007355
1334.3869,0.007374
1336.2506,0.007423
1338.1143,0.007534
1339.9780,0.007655
1341.8416,0.007577
1343.7053,0.007533
1345.5690,0.007523
1347.4326,0.007493
1349.2963,0.007524
1351.1600,0.007632
1353.0236,0.007761
1354.8873,0.007790
1356.7510,0.007828
1358.6146,0.007902
1360.4783,0.007988
1362.3420,0.008161
1364.2056,0.008219
1366.0693,0.008168
1367.9330,0.008112
1369.7967,0.008080
1371.6603,0.008137
1373.5240,0.008260
1375.3877,0.008289
1377.2513,0.008260
1379.1150,0.008331
1380.9787,0.008425
1382.8423,0.008481
1384.7060,0.008524
1386.5697,0.008764
1388.4333,0.008803
1390.2970,0.008740
1392.1607,0.008810
1394.0244,0.009073
1395.8880,0.009162
1397.7517,0.009225
1399.6154,0.009252
1401.4790,0.009137
1403.3427,0.009291
1405.2064,0.009391
1407.0700,0.009314
1408.9337,0.009281
1410.7974,0.009417
1412.6610,0.009447
1414.5247,0.009615
1416.3884,0.009860
1418.2520,0.010037
1420.1157,0.009818
1421.9794,0.009659
1423.8431,0.009753
1425.7067,0.009676
1427.5704,0.009739
1429.4341,0.009895
1431.2977,0.010004
1433.1614,0.009969
1435.0251,0.009977
1436.8887,0.010124
1438.7524,0.009850
1440.6161,0.009755
1442.4797,0.009722
1444.3434,0.009795
1446.2071,0.009898
1448.0707,0.009966
1449.9344,0.009808
1451.7981,0.009806
1453.6618,0.009829
1455.5254,0.010128
1457.3891,0.010270
1459.2528,0.009840
1461.1164,0.009532
1462.9801,0.009527
1464.8438,0.009621
1466.7074,0.009491
1468.5711,0.009411
1470.4348,0.009505
1472.2984,0.009993
1474.1621,0.009922
1476.0258,0.009584
1477.8895,0.009118
1479.7531,0.008977
1481.6168,0.009047
1483.4805,0.008985
1485.3441,0.008973
1487.2078,0.009173
1489.0715,0.009388
1490.9351,0.009197
1492.7988,0.008766
1494.6625,0.008660
1496.5261,0.008734
1498.3898,0.008702
1500.2535,0.008665
1502.1171,0.008615
1503.9808,0.008629
1505.8445,0.009121
1507.7082,0.009364
1509.5718,0.008821
1511.4355,0.008398
1513.2992,0.008165
1515.1628,0.008387
1517.0265,0.008663
1518.8902,0.008623
1520.7538,0.008899
1522.6175,0.008560
1524.4812,0.008282
1526.3448,0.008161
1528.2085,0.008028
1530.0722,0.007940
1531.9359,0.007906
1533.7995,0.008014
1535.6632,0.007824
1537.5269,0.008063
1539.3905,0.008697
1541.2542,0.008633
1543.1179,0.008099
1544.9815,0.007739
1546.8452,0.007458
1548.7089,0.007704
1550.5725,0.007794
1552.4362,0.007658
1554.2999,0.007802
1556.1635,0.007801
1558.0272,0.008357
1559.8909,0.008213
1561.7546,0.007452
1563.6182,0.007319
1565.4819,0.007258
1567.3456,0.007318
1569.2092,0.007633
1571.0729,0.007648
1572.9366,0.007535
1574.8002,0.007668
1576.6639,0.007885
1578.5276,0.007665
1580.3912,0.007668
1582.2549,0.007773
1584.1186,0.007893
1585.9822,0.007898
1587.8459,0.007965
1589.7096,0.007970
1591.5733,0.008115
1593.4369,0.008317
1595.3006,0.008414
1597.1643,0.008534
1599.0279,0.008580
1600.8916,0.008675
1602.7553,0.008920
1604.6189,0.009004
1606.4826,0.009106
1608.3463,0.009443
1610.2099,0.009558
1612.0736,0.009602
1613.9373,0.009783
1615.8010,0.010338
1617.6646,0.010703
1619.5283,0.010610
1621.3920,0.010788
1623.2556,0.011231
1625.1193,0.011384
1626.9830,0.011511
1628.8466,0.011598
1630.7103,0.011585
1632.5740,0.011481
1634.4376,0.011902
1636.3013,0.012526
1638.1650,0.012391
1640.0286,0.012199
1641.8923,0.012051
1643.7560,0.012043
1645.6197,0.012378
1647.4833,0.012549
1649.3470,0.012236
1651.2107,0.012360
1653.0743,0.012726
1654.9380,0.011956
1656.8017,0.011570
1658.6653,0.011436
1660.5290,0.011547
1662.3927,0.011645
1664.2563,0.011317
1666.1200,0.011102
1667.9837,0.011176
1669.8474,0.011342
1671.7110,0.011056
1673.5747,0.010817
1675.4384,0.010726
1677.3020,0.010233
1679.1657,0.010160
1681.0294,0.010083
1682.8930,0.010387
1684.7567,0.010490
1686.6204,0.009790
1688.4840,0.009612
1690.3477,0.009460
1692.2114,0.009166
1694.0750,0.009037
1695.9387,0.009308
1697.8024,0.009202
1699.6661,0.009438
1701.5297,0.008729
1703.3934,0.008409
1705.2571,0.008462
1707.1207,0.008380
1708.9844,0.008099
1710.8481,0.007933
1712.7117,0.008049
1714.5754,0.008187
1716.4391,0.008383
1718.3027,0.008277
1720.1664,0.007592
1722.0301,0.007402
1723.8937,0.007317
1725.7574,0.007283
1727.6211,0.007288
1729.4848,0.007491
1731.3484,0.007573
1733.2121,0.007751
1735.0758,0.007513
1736.9394,0.007260
1738.8031,0.007296
1740.6668,0.007176
1742.5304,0.007214
1744.3941,0.007202
1746.2578,0.007199
1748.1214,0.007271
1749.9851,0.007391
1751.8488,0.007360
1753.7125,0.007040
1755.5761,0.007051
1757.4398,0.006968
1759.3035,0.006991
1761.1671,0.007251
1763.0308,0.007193
1764.8945,0.006963
1766.7581,0.006973
1768.6218,0.007051
1770.4855,0.007249
1772.3491,0.007658
1774.2128,0.007490
1776.0765,0.007194
1777.9401,0.006977
1779.8038,0.007128
1781.6675,0.007246
1783.5312,0.007278
1785.3948,0.007274
1787.2585,0.007143
1789.1222,0.006992
1790.9858,0.007086
1792.8495,0.007170
1794.7132,0.007216
1796.5768,0.007269
1798.4405,0.007188
1800.3042,0.007252
1802.1678,0.007429
1804.0315,0.007322
1805.8952,0.007083
1807.7589,0.007148
1809.6225,0.007245
1811.4862,0.007275
1813.3499,0.007267
1815.2135,0.007195
1817.0772,0.007104
1818.9409,0.007095
1820.8045,0.007127
1822.6682,0.007071
1824.5319,0.007197
1826.3955,0.007289
1828.2592,0.007337
1830.1229,0.007292
1831.9865,0.006969
1833.8502,0.006954
1835.7139,0.007186
1837.5776,0.007307
1839.4412,0.007119
1841.3049,0.006970
1843.1686,0.007173
1845.0322,0.007549
1846.8959,0.007399
1848.7596,0.007063
1850.6232,0.006991
1852.4869,0.007007
1854.3506,0.006770
1856.2142,0.006812
1858.0779,0.006946
1859.9416,0.007161
1861.8052,0.007366
1863.6689,0.007195
1865.5326,0.007113
1867.3963,0.007460
1869.2599,0.007384
1871.1236,0.007076
1872.9873,0.006996
1874.8509,0.007233
1876.7146,0.007352
1878.5783,0.007154
1880.4419,0.007001
1882.3056,0.006946
1884.1693,0.006986
1886.0329,0.007136
1887.8966,0.007192
1889.7603,0.007227
1891.6240,0.007175
1893.4876,0.007062
1895.3513,0.006978
1897.2150,0.006958
1899.0786,0.007082
1900.9423,0.007182
1902.8060,0.006909
1904.6696,0.006879
1906.5333,0.006983
1908.3970,0.007134
1910.2606,0.007391
1912.1243,0.007224
1913.9880,0.006805
1915.8516,0.006821
1917.7153,0.006981
1919.5790,0.007081
1921.4427,0.007054
1923.3063,0.006949
1925.1700,0.007123
1927.0337,0.007307
1928.8973,0.007364
1930.7610,0.007390
1932.6247,0.007062
1934.4883,0.006903
1936.3520,0.006867
1938.2157,0.006914
1940.0793,0.007349
1941.9430,0.007711
1943.8067,0.007382
1945.6704,0.007065
1947.5340,0.007046
1949.3977,0.007047
1951.2614,0.006728
1953.1250,0.006563
1954.9887,0.006716
1956.8524,0.007034
1958.7160,0.007208
1960.5797,0.007092
1962.4434,0.006983
1964.3070,0.006959
1966.1707,0.006982
1968.0344,0.007333
1969.8980,0.007619
1971.7617,0.007168
1973.6254,0.006040
1975.4891,0.005554
1977.3527,0.005537
1979.2164,0.005664
1981.0801,0.005682
1982.9437,0.005932
1984.8074,0.006484
1986.6711,0.007058
1988.5347,0.007405
1990.3984,0.007286
1992.2621,0.007269
1994.1257,0.007444
1995.9894,0.007117
1997.8531,0.007054
1999.7167,0.006721
2001.5804,0.006307
2003.4441,0.006863
2005.3078,0.007039
2007.1714,0.006434
2009.0351,0.006679
2010.8988,0.007663
2012.7624,0.007467
2014.6261,0.006865
2016.4898,0.006901
2018.3534,0.006835
2020.2171,0.006667
2022.0808,0.006048
2023.9444,0.006139
2025.8081,0.006884
2027.6718,0.006785
2029.5355,0.006430
2031.3991,0.006350
2033.2628,0.006189
2035.1265,0.006223
2036.9901,0.006424
2038.8538,0.006788
2040.7175,0.007151
2042.5811,0.007318
2044.4448,0.007129
2046.3085,0.007194
2048.1721,0.007249
2050.0358,0.007148
2051.8995,0.007183
2053.7631,0.006978
2055.6268,0.006666
2057.4905,0.006737
2059.3542,0.007212
2061.2178,0.007398
2063.0815,0.006853
2064.9452,0.006444
2066.8088,0.006303
2068.6725,0.006594
2070.5362,0.007147
2072.3998,0.007268
2074.2635,0.007376
2076.1272,0.007544
2077.9908,0.007551
2079.8545,0.007515
2081.7182,0.007314
2083.5819,0.007143
2085.4455,0.006852
2087.3092,0.006696
2089.1729,0.006785
2091.0365,0.006883
2092.9002,0.007226
2094.7639,0.007405
2096.6275,0.007321
2098.4912,0.007543
2100.3549,0.007451
2102.2185,0.007130
2104.0822,0.007133
2105.9459,0.007315
2107.8095,0.007160
2109.6732,0.007242
2111.5369,0.007525
2113.4006,0.007199
2115.2642,0.006996
2117.1279,0.007104
2118.9916,0.006898
2120.8552,0.006772
2122.7189,0.006948
2124.5826,0.006982
2126.4462,0.006982
2128.3099,0.006982
2130.1736,0.006922
2132.0372,0.007162
2133.9009,0.007220
2135.7646,0.006914
2137.6282,0.006957
2139.4919,0.006790
2141.3556,0.006345
2143.2193,0.006629
2145.0829,0.006700
2146.9466,0.006348
2148.8103,0.006011
2150.6739,0.005930
2152.5376,0.006154
2154.4013,0.006357
2156.2649,0.006250
2158.1286,0.005972
2159.9923,0.006367
2161.8559,0.006541
2163.7196,0.006165
2165.5833,0.006931
2167.4470,0.007117
2169.3106,0.006706
2171.1743,0.007040
2173.0380,0.006734
2174.9016,0.006339
2176.7653,0.006608
2178.6290,0.006527
2180.4926,0.006286
2182.3563,0.006491
2184.2200,0.007448
2186.0836,0.007723
2187.9473,0.006974
2189.8110,0.006235
2191.6746,0.006368
2193.5383,0.006760
2195.4020,0.006994
2197.2657,0.007191
2199.1293,0.006976
2200.9930,0.006746
2202.8567,0.007065
2204.7203,0.007405
2206.5840,0.007754
2208.4477,0.007762
2210.3113,0.007669
2212.1750,0.007923
2214.0387,0.007831
2215.9023,0.007246
2217.7660,0.007433
2219.6297,0.007991
2221.4934,0.007841
2223.3570,0.007638
2225.2207,0.007759
2227.0844,0.007861
2228.9480,0.007915
2230.8117,0.007323
2232.6754,0.007089
2234.5390,0.007728
2236.4027,0.008017
2238.2664,0.007778
2240.1300,0.007405
2241.9937,0.007320
2243.8574,0.007659
2245.7210,0.007445
2247.5847,0.007198
2249.4484,0.007675
2251.3121,0.008016
2253.1757,0.007858
2255.0394,0.007610
2256.9031,0.007439
2258.7667,0.007537
2260.6304,0.007570
2262.4941,0.007641
2264.3577,0.007788
2266.2214,0.007879
2268.0851,0.007974
2269.9487,0.008197
2271.8124,0.008382
2273.6761,0.008044
2275.5397,0.007451
2277.4034,0.007314
2279.2671,0.007434
2281.1308,0.007979
2282.9944,0.008103
2284.8581,0.007584
2286.7218,0.007655
2288.5854,0.008011
2290.4491,0.007969
2292.3128,0.008044
2294.1764,0.008122
2296.0401,0.008025
2297.9038,0.007887
2299.7674,0.007805
2301.6311,0.008006
2303.4948,0.008117
2305.3585,0.007960
2307.2221,0.008160
2309.0858,0.008295
2310.9495,0.008271
2312.8131,0.008246
2314.6768,0.008023
2316.5405,0.007927
2318.4041,0.007888
2320.2678,0.007793
2322.1315,0.008069
2323.9951,0.008215
2325.8588,0.008089
2327.7225,0.008143
2329.5861,0.008094
2331.4498,0.007916
2333.3135,0.007901
2335.1772,0.007925
2337.0408,0.007952
2338.9045,0.008151
2340.7682,0.008162
2342.6318,0.008059
2344.4955,0.007804
2346.3592,0.007728
2348.2228,0.007864
2350.0865,0.007725
2351.9502,0.007653
2353.8138,0.007708
2355.6775,0.007741
2357.5412,0.007938
2359.4049,0.007917
2361.2685,0.007853
2363.1322,0.007997
2364.9959,0.007862
2366.8595,0.007888
2368.7232,0.007827
2370.5869,0.007610
2372.4505,0.007773
2374.3142,0.007569
2376.1779,0.007497
2378.0415,0.007857
2379.9052,0.007891
2381.7689,0.007940
2383.6325,0.008025
2385.4962,0.008081
2387.3599,0.007979
2389.2236,0.007961
2391.0872,0.008154
2392.9509,0.008114
2394.8146,0.007948
2396.6782,0.007820
2398.5419,0.007876
2400.4056,0.008028
2402.2692,0.007786
2404.1329,0.007629
2405.9966,0.007883
2407.8602,0.007866
2409.7239,0.007771
2411.5876,0.007956
2413.4512,0.008045
2415.3149,0.008091
2417.1786,0.008094
2419.0423,0.008426
2420.9059,0.008508
2422.7696,0.008069
2424.6333,0.007958
2426.4969,0.008176
2428.3606,0.008283
2430.2243,0.007960
2432.0879,0.007680
2433.9516,0.007966
2435.8153,0.008275
2437.6789,0.008437
2439.5426,0.008502
2441.4063,0.008081
2443.2700,0.007729
2445.1336,0.007869
2446.9973,0.008277
2448.8610,0.008382
2450.7246,0.008244
2452.5883,0.008403
2454.4520,0.008377
2456.3156,0.007933
2458.1793,0.007910
2460.0430,0.008143
2461.9066,0.008151
2463.7703,0.008170
2465.6340,0.007990
2467.4976,0.007824
2469.3613,0.007982
2471.2250,0.008106
2473.0887,0.007973
2474.9523,0.007871
2476.8160,0.007868
2478.6797,0.008101
2480.5433,0.008511
2482.4070,0.008471
2484.2707,0.008101
2486.1343,0.008120
2487.9980,0.008228
2489.8617,0.008214
2491.7253,0.008380
2493.5890,0.008576
2495.4527,0.008260
2497.3164,0.007753
2499.1800,0.007562
2501.0437,0.007431
2502.9074,0.007767
2504.7710,0.008563
2506.6347,0.008658
2508.4984,0.008055
2510.3620,0.007816
2512.2257,0.008227
2514.0894,0.008258
2515.9530,0.008026
2517.8167,0.007929
2519.6804,0.007736
2521.5440,0.007963
2523.4077,0.008290
2525.2714,0.008388
2527.1351,0.008570
2528.9987,0.008706
2530.8624,0.008297
2532.7261,0.007977
2534.5897,0.008205
2536.4534,0.008139
2538.3171,0.007786
2540.1807,0.007651
2542.0444,0.007906
2543.9081,0.008281
2545.7717,0.008475
2547.6354,0.008460
2549.4991,0.008530
2551.3627,0.008543
2553.2264,0.008355
2555.0901,0.008223
2556.9538,0.008062
2558.8174,0.008186
2560.6811,0.008245
2562.5448,0.007989
2564.4084,0.007984
2566.2721,0.008206
2568.1358,0.008263
2569.9994,0.008079
2571.8631,0.008303
2573.7268,0.008634
2575.5904,0.008116
2577.4541,0.007785
2579.3178,0.008280
2581.1815,0.008534
2583.0451,0.008326
2584.9088,0.008292
2586.7725,0.008277
2588.6361,0.008162
2590.4998,0.008133
2592.3635,0.008121
2594.2271,0.008279
2596.0908,0.008269
2597.9545,0.007948
2599.8181,0.007868
2601.6818,0.008043
2603.5455,0.008264
2605.4091,0.008464
2607.2728,0.008487
2609.1365,0.008347
2611.0002,0.008201
2612.8638,0.008101
2614.7275,0.008169
2616.5912,0.008487
2618.4548,0.008596
2620.3185,0.008458
2622.1822,0.008330
2624.0458,0.008392
2625.9095,0.008351
2627.7732,0.008299
2629.6368,0.008520
2631.5005,0.008445
2633.3642,0.008080
2635.2279,0.008138
2637.0915,0.008285
2638.9552,0.008202
2640.8189,0.008282
2642.6825,0.008308
2644.5462,0.008132
2646.4099,0.008220
2648.2735,0.008430
2650.1372,0.008593
2652.0009,0.008796
2653.8645,0.008668
2655.7282,0.008470
2657.5919,0.008473
2659.4555,0.008502
2661.3192,0.008421
2663.1829,0.008244
2665.0466,0.008360
2666.9102,0.008485
2668.7739,0.008399
2670.6376,0.008359
2672.5012,0.008314
2674.3649,0.008273
2676.2286,0.008239
2678.0922,0.008210
2679.9559,0.008411
2681.8196,0.008403
2683.6832,0.008033
2685.5469,0.008050
2687.4106,0.008198
2689.2742,0.008411
2691.1379,0.008627
2693.0016,0.008418
2694.8653,0.008306
2696.7289,0.008520
2698.5926,0.008548
2700.4563,0.008410
2702.3199,0.008455
2704.1836,0.008567
2706.0473,0.008480
2707.9109,0.008499
2709.7746,0.008600
2711.6383,0.008367
2713.5019,0.008097
2715.3656,0.008173
2717.2293,0.008256
2719.0930,0.008488
2720.9566,0.008717
2722.8203,0.008554
2724.6840,0.008275
2726.5476,0.008150
2728.4113,0.008209
2730.2750,0.008448
2732.1386,0.008398
2734.0023,0.008441
2735.8660,0.008671
2737.7296,0.008632
2739.5933,0.008583
2741.4570,0.008535
2743.3206,0.008442
2745.1843,0.008635
2747.0480,0.008601
2748.9117,0.008264
2750.7753,0.008282
2752.6390,0.008537
2754.5027,0.008764
2756.3663,0.008563
2758.2300,0.008276
2760.0937,0.008174
2761.9573,0.008349
2763.8210,0.008592
2765.6847,0.008782
2767.5483,0.008697
2769.4120,0.008603
2771.2757,0.008681
2773.1394,0.008720
2775.0030,0.008516
2776.8667,0.008464
2778.7304,0.008656
2780.5940,0.008780
2782.4577,0.008653
2784.3214,0.008438
2786.1850,0.008464
2788.0487,0.008505
2789.9124,0.008492
2791.7760,0.008555
2793.6397,0.008632
2795.5034,0.008809
2797.3670,0.008689
2799.2307,0.008596
2801.0944,0.008778
2802.9581,0.008831
2804.8217,0.008920
2806.6854,0.008778
2808.5491,0.008823
2810.4127,0.009009
2812.2764,0.008990
2814.1401,0.008866
2816.0037,0.008740
2817.8674,0.008845
2819.7311,0.008890
2821.5947,0.008788
2823.4584,0.008769
2825.3221,0.008699
2827.1857,0.008486
2829.0494,0.008584
2830.9131,0.008929
2832.7768,0.008943
2834.6404,0.008625
2836.5041,0.008703
2838.3678,0.008895
2840.2314,0.008751
2842.0951,0.008638
2843.9588,0.008834
2845.8224,0.008952
2847.6861,0.008891
2849.5498,0.008750
2851.4134,0.008755
2853.2771,0.008852
2855.1408,0.008818
2857.0045,0.008569
2858.8681,0.008546
2860.7318,0.008640
2862.5955,0.008576
2864.4591,0.008629
2866.3228,0.008697
2868.1865,0.008568
2870.0501,0.008917
2871.9138,0.009263
2873.7775,0.009063
2875.6411,0.008902
2877.5048,0.008746
2879.3685,0.008897
2881.2321,0.009241
2883.0958,0.009135
2884.9595,0.008907
2886.8232,0.008873
2888.6868,0.008755
2890.5505,0.008823
2892.4142,0.009101
2894.2778,0.009163
2896.1415,0.008916
2898.0052,0.008940
2899.8688,0.009205
2901.7325,0.009257
2903.5962,0.009177
2905.4598,0.009185
2907.3235,0.009098
2909.1872,0.008704
2911.0509,0.008853
2912.9145,0.009288
2914.7782,0.009217
2916.6419,0.009428
2918.5055,0.009234
2920.3692,0.008681
2922.2329,0.008935
2924.0965,0.008972
2925.9602,0.008963
2927.8239,0.008910
2929.6875,0.009178
2931.5512,0.009401
2933.4149,0.009255
2935.2785,0.009107
2937.1422,0.009062
2939.0059,0.009119
2940.8696,0.009370
2942.7332,0.009261
2944.5969,0.009153
2946.4606,0.009300
2948.3242,0.008977
2950.1879,0.008720
2952.0516,0.008869
2953.9152,0.009268
2955.7789,0.009469
2957.6426,0.009601
2959.5062,0.009479
2961.3699,0.009478
2963.2336,0.009648
2965.0972,0.009484
2966.9609,0.009270
2968.8246,0.009378
2970.6883,0.009381
2972.5519,0.009350
2974.4156,0.009583
2976.2793,0.009479
2978.1429,0.009150
2980.0066,0.009412
2981.8703,0.009515
2983.7339,0.009334
2985.5976,0.009530
2987.4613,0.009467
2989.3249,0.009312
2991.1886,0.009386
2993.0523,0.009435
2994.9160,0.009450
2996.7796,0.009956
2998.6433,0.010312
3000.5070,0.009907
3002.3706,0.010094
3004.2343,0.010644
3006.0980,0.010519
3007.9616,0.010051
3009.8253,0.010086
3011.6890,0.010134
3013.5526,0.009745
3015.4163,0.009792
3017.2800,0.009533
3019.1436,0.009459
3021.0073,0.010139
3022.8710,0.010209
3024.7347,0.010094
3026.5983,0.010055
3028.4620,0.010107
3030.3257,0.010396
3032.1893,0.010425
3034.0530,0.010626
3035.9167,0.010685
3037.7803,0.010334
3039.6440,0.010061
3041.5077,0.010222
3043.3713,0.010618
3045.2350,0.010848
3047.0987,0.010636
3048.9624,0.009897
3050.8260,0.010028
3052.6897,0.010472
3054.5534,0.010535
3056.4170,0.010681
3058.2807,0.010608
3060.1444,0.010324
3062.0080,0.010538
3063.8717,0.010770
3065.7354,0.010757
3067.5990,0.010767
3069.4627,0.011178
3071.3264,0.011307
3073.1900,0.010984
3075.0537,0.010838
3076.9174,0.011051
3078.7811,0.011035
3080.6447,0.010871
3082.5084,0.010558
3084.3721,0.010640
3086.2357,0.011061
3088.0994,0.011084
3089.9631,0.010846
3091.8267,0.011145
3093.6904,0.011351
3095.5541,0.010990
3097.4177,0.011281
3099.2814,0.011421
3101.1451,0.011259
3103.0087,0.011077
3104.8724,0.011492
3106.7361,0.011786
3108.5998,0.011385
3110.4634,0.011159
3112.3271,0.011557
3114.1908,0.011893
3116.0544,0.011971
3117.9181,0.011536
3119.7818,0.011435
3121.6454,0.012052
3123.5091,0.012251
3125.3728,0.011963
3127.2364,0.012207
3129.1001,0.012652
3130.9638,0.012338
3132.8275,0.011785
3134.6911,0.011962
3136.5548,0.012442
3138.4185,0.012240
3140.2821,0.012164
3142.1458,0.012640
3144.0095,0.012332
3145.8731,0.012260
3147.7368,0.012449
3149.6005,0.013070
3151.4641,0.012848
3153.3278,0.012472
3155.1915,0.013088
3157.0551,0.012810
3158.9188,0.012208
3160.7825,0.012472
3162.6462,0.012929
3164.5098,0.012829
3166.3735,0.012835
3168.2372,0.013423
3170.1008,0.013393
3171.9645,0.012855
3173.8282,0.012994
3175.6918,0.013459
3177.5555,0.013307
3179.4192,0.013538
3181.2828,0.013639
3183.1465,0.013214
3185.0102,0.012887
3186.8739,0.013509
3188.7375,0.013758
3190.6012,0.013289
3192.4649,0.012828
3194.3285,0.012966
3196.1922,0.013580
3198.0559,0.013700
3199.9195,0.013689
3201.7832,0.014142
3203.6469,0.013861
3205.5105,0.013359
3207.3742,0.014142
3209.2379,0.014758
3211.1015,0.013971
3212.9652,0.013535
3214.8289,0.013699
3216.6926,0.013777
3218.5562,0.013593
3220.4199,0.014079
3222.2836,0.014523
3224.1472,0.014199
3226.0109,0.014176
3227.8746,0.014538
3229.7382,0.013674
3231.6019,0.013773
3233.4656,0.014499
3235.3292,0.014096
3237.1929,0.013735
3239.0566,0.014218
3240.9202,0.014867
3242.7839,0.014957
3244.6476,0.014440
3246.5113,0.013630
3248.3749,0.014029
3250.2386,0.014740
3252.1023,0.014483
3253.9659,0.014307
3255.8296,0.014682
3257.6933,0.015060
3259.5569,0.014421
3261.4206,0.014226
3263.2843,0.014533
3265.1479,0.015201
3267.0116,0.015424
3268.8753,0.015278
3270.7390,0.015041
3272.6026,0.014519
3274.4663,0.014085
3276.3300,0.014685
3278.1936,0.015080
3280.0573,0.014267
3281.9210,0.014036
3283.7846,0.014644
3285.6483,0.014885
3287.5120,0.015002
3289.3756,0.015292
3291.2393,0.015496
3293.1030,0.015395
3294.9666,0.014415
3296.8303,0.014357
3298.6940,0.015066
3300.5577,0.015180
3302.4213,0.014766
3304.2850,0.014728
3306.1487,0.015424
3308.0123,0.015351
3309.8760,0.014209
3311.7397,0.014301
3313.6033,0.014817
3315.4670,0.014803
3317.3307,0.015290
3319.1943,0.014950
3321.0580,0.015343
3322.9217,0.015585
3324.7854,0.014496
3326.6490,0.013609
3328.5127,0.013987
3330.3764,0.014771
3332.2400,0.015101
3334.1037,0.014956
3335.9674,0.015241
3337.8310,0.015130
3339.6947,0.013944
3341.5584,0.013516
3343.4220,0.015244
3345.2857,0.015324
3347.1494,0.014388
3349.0130,0.014314
3350.8767,0.015105
3352.7404,0.015419
3354.6041,0.014740
3356.4677,0.014635
3358.3314,0.014303
3360.1951,0.015348
3362.0587,0.015831
3363.9224,0.014964
3365.7861,0.015197
3367.6497,0.015868
3369.5134,0.014962
3371.3771,0.013607
3373.2407,0.014373
3375.1044,0.014699
3376.9681,0.014514
3378.8317,0.015245
3380.6954,0.015916
3382.5591,0.015553
3384.4228,0.014648
3386.2864,0.015061
3388.1501,0.014910
3390.0138,0.014851
3391.8774,0.015423
3393.7411,0.014838
3395.6048,0.014889
3397.4684,0.014651
3399.3321,0.014911
3401.1958,0.015025
3403.0594,0.013916
3404.9231,0.014459
3406.7868,0.014942
3408.6505,0.014536
3410.5141,0.013890
3412.3778,0.012855
3414.2415,0.013070
3416.1051,0.014019
3417.9688,0.014445
3419.8325,0.015536
3421.6961,0.015658
3423.5598,0.014522
3425.4235,0.013853
3427.2871,0.013076
3429.1508,0.012953
3431.0145,0.013887
3432.8781,0.014463
3434.7418,0.013742
3436.6055,0.012682
3438.4692,0.012534
3440.3328,0.013231
3442.1965,0.014369
3444.0602,0.014244
3445.9238,0.013136
3447.7875,0.013432
3449.6512,0.013415
3451.5148,0.013049
3453.3785,0.013785
3455.2422,0.013692
3457.1058,0.013606
3458.9695,0.013553
3460.8332,0.013042
3462.6969,0.013548
3464.5605,0.013366
3466.4242,0.013155
3468.2879,0.013637
3470.1515,0.013658
3472.0152,0.013459
3473.8789,0.012654
3475.7425,0.012410
3477.6062,0.013512
3479.4699,0.013434
3481.3335,0.012737
3483.1972,0.013065
3485.0609,0.012791
3486.9245,0.013767
3488.7882,0.014091
3490.6519,0.012955
3492.5156,0.013064
3494.3792,0.012580
3496.2429,0.012609
3498.1066,0.012388
3499.9702,0.012315
3501.8339,0.013382
3503.6976,0.013936
3505.5612,0.013591
3507.4249,0.012404
3509.2886,0.012357
3511.1522,0.013979
3513.0159,0.014913
3514.8796,0.014884
3516.7432,0.013180
3518.6069,0.011318
3520.4706,0.012035
3522.3343,0.012931
3524.1979,0.012911
3526.0616,0.012775
3527.9253,0.013721
3529.7889,0.013377
3531.6526,0.012201
3533.5163,0.012523
3535.3799,0.014014
3537.2436,0.014562
3539.1073,0.013633
3540.9709,0.013285
3542.8346,0.013066
3544.6983,0.012800
3546.5620,0.013052
3548.4256,0.011923
3550.2893,0.012966
3552.1530,0.014591
3554.0166,0.013628
3555.8803,0.012782
3557.7440,0.013798
3559.6076,0.014284
3561.4713,0.012693
3563.3350,0.011625
3565.1986,0.011953
3567.0623,0.012479
3568.9260,0.012826
3570.7896,0.013080
3572.6533,0.012557
3574.5170,0.013203
3576.3807,0.013536
3578.2443,0.012922
3580.1080,0.012572
3581.9717,0.012880
3583.8353,0.012520
3585.6990,0.012607
3587.5627,0.013461
3589.4263,0.013186
3591.2900,0.012768
3593.1537,0.012293
3595.0173,0.012361
3596.8810,0.012534
3598.7447,0.012449
3600.6084,0.012346
3602.4720,0.013246
3604.3357,0.013564
3606.1994,0.012227
3608.0630,0.011613
3609.9267,0.012490
3611.7904,0.013178
3613.6540,0.012956
3615.5177,0.012279
3617.3814,0.012335
3619.2450,0.012945
3621.1087,0.012468
3622.9724,0.012077
3624.8360,0.012703
3626.6997,0.012957
3628.5634,0.013197
3630.4271,0.014065
3632.2907,0.013366
3634.1544,0.012094
3636.0181,0.011645
3637.8817,0.011241
3639.7454,0.011147
3641.6091,0.011219
3643.4727,0.011187
3645.3364,0.011373
3647.2001,0.011766
3649.0637,0.011759
3650.9274,0.011895
3652.7911,0.012234
3654.6547,0.011860
3656.5184,0.011075
3658.3821,0.010804
3660.2458,0.010859
3662.1094,0.010741
3663.9731,0.010797
3665.8368,0.010305
3667.7004,0.010089
3669.5641,0.010749
3671.4278,0.011060
3673.2914,0.011388
3675.1551,0.011470
3677.0188,0.010394
3678.8824,0.009717
3680.7461,0.008631
3682.6098,0.008653
3684.4735,0.008900
3686.3371,0.009276
3688.2008,0.009875
3690.0645,0.009820
3691.9281,0.009573
3693.7918,0.009045
3695.6555,0.008375
3697.5191,0.007802
3699.3828,0.008372
3701.2465,0.008540
3703.1101,0.007553
3704.9738,0.007578
3706.8375,0.008810
3708.7011,0.008950
3710.5648,0.008233
3712.4285,0.007634
3714.2922,0.006625
3716.1558,0.006899
3718.0195,0.007351
3719.8832,0.007875
3721.7468,0.007943
3723.6105,0.007076
3725.4742,0.006713
3727.3378,0.007208
3729.2015,0.007112
3731.0652,0.006889
3732.9288,0.007394
3734.7925,0.006871
3736.6562,0.006845
3738.5199,0.007209
3740.3835,0.006833
3742.2472,0.007365
3744.1109,0.007792
3745.9745,0.006617
3747.8382,0.006558
3749.7019,0.006619
3751.5655,0.007069
3753.4292,0.007878
3755.2929,0.008116
3757.1565,0.007387
3759.0202,0.007257
3760.8839,0.007199
3762.7475,0.007179
3764.6112,0.007259
3766.4749,0.007266
3768.3386,0.007574
3770.2022,0.006886
3772.0659,0.006627
3773.9296,0.006850
3775.7932,0.006778
3777.6569,0.006688
3779.5206,0.006451
3781.3842,0.006720
3783.2479,0.007313
3785.1116,0.007078
3786.9752,0.006877
3788.8389,0.007276
3790.7026,0.007471
3792.5662,0.007344
3794.4299,0.007213
3796.2936,0.006959
3798.1573,0.006454
3800.0209,0.006532
3801.8846,0.006135
3803.7483,0.007416
3805.6119,0.007809
3807.4756,0.007223
3809.3393,0.007746
3811.2029,0.007293
3813.0666,0.006872
3814.9303,0.007222
3816.7939,0.007328
3818.6576,0.007827
3820.5213,0.007382
3822.3850,0.007057
3824.2486,0.007225
3826.1123,0.006385
3827.9760,0.006808
3829.8396,0.007747
3831.7033,0.007388
3833.5670,0.006674
3835.4306,0.006338
3837.2943,0.006459
3839.1580,0.007302
3841.0216,0.007806
3842.8853,0.007887
3844.7490,0.008015
3846.6126,0.007324
3848.4763,0.006928
3850.3400,0.007421
3852.2037,0.007722
3854.0673,0.008301
3855.9310,0.007982
3857.7947,0.007031
3859.6583,0.006718
3861.5220,0.007380
3863.3857,0.007269
3865.2493,0.006706
3867.1130,0.006851
3868.9767,0.007236
3870.8403,0.007066
3872.7040,0.007990
3874.5677,0.008105
3876.4314,0.007758
3878.2950,0.007018
3880.1587,0.007167
3882.0224,0.008197
3883.8860,0.008285
3885.7497,0.007899
3887.6134,0.007533
3889.4770,0.007282
3891.3407,0.007438
3893.2044,0.007624
3895.0680,0.007218
3896.9317,0.007187
3898.7954,0.007814
3900.6590,0.008276
3902.5227,0.008220
3904.3864,0.007870
3906.2501,0.007196
3908.1137,0.006656
3909.9774,0.006994
3911.8411,0.007506
3913.7047,0.007230
3915.5684,0.006907
3917.4321,0.007129
3919.2957,0.007231
3921.1594,0.007311
3923.0231,0.007580
3924.8867,0.007515
3926.7504,0.007530
3928.6141,0.008102
3930.4777,0.007953
3932.3414,0.008136
3934.2051,0.008130
3936.0688,0.008001
3937.9324,0.007791
3939.7961,0.007433
3941.6598,0.007868
3943.5234,0.008229
3945.3871,0.008160
3947.2508,0.007829
3949.1144,0.007266
3950.9781,0.007614
3952.8418,0.007278
3954.7054,0.006962
3956.5691,0.006763
3958.4328,0.006447
3960.2965,0.007019
3962.1601,0.007325
3964.0238,0.007472
3965.8875,0.007352
3967.7511,0.006694
3969.6148,0.006827
3971.4785,0.007601
3973.3421,0.007888
3975.2058,0.007263
3977.0695,0.006833
3978.9331,0.006954
3980.7968,0.007292
3982.6605,0.007619
3984.5241,0.007787
3986.3878,0.008077
3988.2515,0.008215
3990.1152,0.008365
3991.9788,0.007641
3993.8425,0.006635
3995.7062,0.006840
3997.5698,0.007457
3999.4335,0.007581
4001.2972,0.007137
4003.1608,0.007682
4005.0245,0.008211
4006.8882,0.008223
4008.7518,0.007586
4010.6155,0.007217
4012.4792,0.007343
4014.3429,0.007390
4016.2065,0.007292
4018.0702,0.007405
4019.9339,0.007212
4021.7975,0.007487
4023.6612,0.007557
4025.5249,0.007554
4027.3885,0.007878
4029.2522,0.007824
4031.1159,0.007497
4032.9795,0.007854
4034.8432,0.007826
4036.7069,0.007848
4038.5705,0.007522
4040.4342,0.007057
4042.2979,0.007122
4044.1616,0.007300
4046.0252,0.007377
4047.8889,0.007084
4049.7526,0.007268
4051.6162,0.007432
4053.4799,0.007408
4055.3436,0.007734
4057.2072,0.007695
4059.0709,0.007787
4060.9346,0.007295
4062.7982,0.007623
4064.6619,0.007921
4066.5256,0.007496
4068.3892,0.007093
4070.2529,0.007299
4072.1166,0.007217
4073.9803,0.007461
4075.8439,0.007535
4077.7076,0.007432
4079.5713,0.007618
4081.4349,0.007687
4083.2986,0.007652
4085.1623,0.007494
4087.0259,0.007085
4088.8896,0.007029
4090.7533,0.007052
4092.6169,0.007565
4094.4806,0.008251
4096.3443,0.008425
4098.2080,0.007806
4100.0716,0.007530
