Wavenumber,Intensity
650.4205,0.069872
652.2841,0.066966
654.1478,0.066905
656.0115,0.068794
657.8751,0.069514
659.7388,0.068780
661.6025,0.068354
663.4661,0.068886
665.3298,0.069561
667.1935,0.069663
669.0571,0.068229
670.9208,0.067066
672.7845,0.065682
674.6481,0.065059
676.5118,0.065791
678.3755,0.065391
680.2392,0.064012
682.1028,0.063594
683.9665,0.063338
685.8302,0.062365
687.6938,0.062139
689.5575,0.062776
691.4212,0.063140
693.2848,0.062790
695.1485,0.062220
697.0122,0.061588
698.8758,0.060775
700.7395,0.060280
702.6032,0.060598
704.4669,0.060818
706.3305,0.060134
708.1942,0.059842
710.0579,0.060740
711.9215,0.061503
713.7852,0.061292
715.6489,0.059899
717.5125,0.058163
719.3762,0.056958
721.2399,0.056455
723.1035,0.056516
724.9672,0.056534
726.8309,0.056289
728.6945,0.055797
730.5582,0.054953
732.4219,0.054241
734.2856,0.054523
736.1492,0.054577
738.0129,0.054265
739.8766,0.054619
741.7402,0.054104
743.6039,0.053304
745.4676,0.053362
747.3312,0.053498
749.1949,0.053261
751.0586,0.052722
752.9222,0.052694
754.7859,0.053022
756.6496,0.052914
758.5132,0.052424
760.3769,0.051956
762.2406,0.051862
764.1043,0.051938
765.9679,0.051760
767.8316,0.051224
769.6953,0.050935
771.5589,0.051235
773.4226,0.051108
775.2863,0.050834
777.1499,0.051017
779.0136,0.050869
780.8773,0.050543
782.7409,0.050342
784.6046,0.050061
786.4683,0.049511
788.3320,0.049149
790.1956,0.049201
792.0593,0.049076
793.9230,0.048845
795.7866,0.048693
797.6503,0.048602
799.5140,0.048561
801.3776,0.048215
803.2413,0.047648
805.1050,0.047472
806.9686,0.047440
808.8323,0.046896
810.6960,0.046537
812.5596,0.046748
814.4233,0.046770
816.2870,0.046711
818.1507,0.046710
820.0143,0.046629
821.8780,0.046414
823.7417,0.046201
825.6053,0.046271
827.4690,0.046309
829.3327,0.046236
831.1963,0.046349
833.0600,0.046529
834.9237,0.046509
836.7873,0.046550
838.6510,0.047012
840.5147,0.047598
842.3784,0.047865
844.2420,0.048042
846.1057,0.048558
847.9694,0.049191
849.8330,0.049640
851.6967,0.050029
853.5604,0.050555
855.4240,0.051182
857.2877,0.051813
859.1514,0.052600
861.0150,0.053600
862.8787,0.054699
864.7424,0.055967
866.6060,0.057454
868.4697,0.059352
870.3334,0.061783
872.1971,0.063893
874.0607,0.064921
875.9244,0.064882
877.7881,0.063804
879.6517,0.062317
881.5154,0.061058
883.3791,0.059892
885.2427,0.058682
887.1064,0.057738
888.9701,0.057487
890.8337,0.057799
892.6974,0.058196
894.5611,0.058480
896.4247,0.058904
898.2884,0.059443
900.1521,0.059954
902.0158,0.060475
903.8794,0.060894
905.7431,0.061221
907.6068,0.061725
909.4704,0.062228
911.3341,0.062612
913.1978,0.063075
915.0614,0.063488
916.9251,0.063903
918.7888,0.064386
920.6524,0.064934
922.5161,0.065478
924.3798,0.066054
926.2435,0.066798
928.1071,0.067599
929.9708,0.068347
931.8345,0.069056
933.6981,0.069834
935.5618,0.070632
937.4255,0.071423
939.2891,0.072329
941.1528,0.073247
943.0165,0.074143
944.8801,0.075196
946.7438,0.076296
948.6075,0.077315
950.4711,0.078379
952.3348,0.079448
954.1985,0.080540
956.0622,0.081751
957.9258,0.082928
959.7895,0.084062
961.6532,0.085184
963.5168,0.086304
965.3805,0.087499
967.2442,0.088634
969.1078,0.089763
970.9715,0.090852
972.8352,0.091829
974.6988,0.093011
976.5625,0.094284
978.4262,0.095388
980.2899,0.096477
982.1535,0.097617
984.0172,0.098682
985.8809,0.099547
987.7445,0.100214
989.6082,0.100872
991.4719,0.101566
993.3355,0.102118
995.1992,0.102504
997.0629,0.102875
998.9265,0.103185
1000.7902,0.103353
1002.6539,0.103492
1004.5175,0.103614
1006.3812,0.103700
1008.2449,0.103775
1010.1086,0.103898
1011.9722,0.104052
1013.8359,0.103979
1015.6996,0.103795
1017.5632,0.103487
1019.4269,0.102938
1021.2906,0.102392
1023.1542,0.101786
1025.0179,0.101126
1026.8816,0.100464
1028.7452,0.099667
1030.6089,0.098822
1032.4726,0.097871
1034.3362,0.096665
1036.1999,0.095314
1038.0636,0.093944
1039.9273,0.092616
1041.7909,0.091351
1043.6546,0.090124
1045.5183,0.088967
1047.3819,0.087887
1049.2456,0.086752
1051.1093,0.085629
1052.9729,0.084615
1054.8366,0.083573
1056.7003,0.082384
1058.5639,0.081044
1060.4276,0.079532
1062.2913,0.077882
1064.1550,0.076264
1066.0186,0.074781
1067.8823,0.073473
1069.7460,0.072315
1071.6096,0.071278
1073.4733,0.070274
1075.3370,0.069222
1077.2006,0.068194
1079.0643,0.067124
1080.9280,0.065973
1082.7916,0.064936
1084.6553,0.064083
1086.5190,0.063211
1088.3826,0.062395
1090.2463,0.061702
1092.1100,0.060907
1093.9737,0.060136
1095.8373,0.059470
1097.7010,0.058785
1099.5647,0.058078
1101.4283,0.057381
1103.2920,0.056732
1105.1557,0.056180
1107.0193,0.055647
1108.8830,0.054998
1110.7467,0.054201
1112.6103,0.053357
1114.4740,0.052433
1116.3377,0.051310
1118.2014,0.050353
1120.0650,0.049591
1121.9287,0.048738
1123.7924,0.047872
1125.6560,0.046984
1127.5197,0.046081
1129.3834,0.045279
1131.2470,0.044570
1133.1107,0.043911
1134.9744,0.043321
1136.8380,0.042792
1138.7017,0.042419
1140.5654,0.042122
1142.4290,0.041828
1144.2927,0.041561
1146.1564,0.041192
1148.0201,0.040865
1149.8837,0.040615
1151.7474,0.040297
1153.6111,0.039952
1155.4747,0.039540
1157.3384,0.038938
1159.2021,0.038233
1161.0657,0.037421
1162.9294,0.036445
1164.7931,0.035385
1166.6567,0.034269
1168.5204,0.033023
1170.3841,0.031760
1172.2477,0.030694
1174.1114,0.029658
1175.9751,0.028590
1177.8388,0.027649
1179.7024,0.026884
1181.5661,0.026179
1183.4298,0.025441
1185.2934,0.024860
1187.1571,0.024499
1189.0208,0.024186
1190.8844,0.023924
1192.7481,0.023722
1194.6118,0.023579
1196.4754,0.023488
1198.3391,0.023499
1200.2028,0.023492
1202.0665,0.023337
1203.9301,0.023096
1205.7938,0.022884
1207.6575,0.022701
1209.5211,0.022512
1211.3848,0.022323
1213.2485,0.022267
1215.1121,0.022315
1216.9758,0.022409
1218.8395,0.022508
1220.7031,0.022547
1222.5668,0.022628
1224.4305,0.022728
1226.2941,0.022899
1228.1578,0.023153
1230.0215,0.023332
1231.8852,0.023385
1233.7488,0.023387
1235.6125,0.023398
1237.4762,0.023451
1239.3398,0.023366
1241.2035,0.023264
1243.0672,0.023250
1244.9308,0.023231
1246.7945,0.023185
1248.6582,0.023062
1250.5218,0.023018
1252.3855,0.023076
1254.2492,0.022979
1256.1129,0.022848
1257.9765,0.022846
1259.8402,0.022804
1261.7039,0.022702
1263.5675,0.022668
1265.4312,0.022675
1267.2949,0.022584
1269.1585,0.022551
1271.0222,0.022620
1272.8859,0.022680
1274.7495,0.022744
1276.6132,0.022784
1278.4769,0.022863
1280.3405,0.022986
1282.2042,0.023012
1284.0679,0.022995
1285.9316,0.023074
1287.7952,0.023158
1289.6589,0.023227
1291.5226,0.023424
1293.3862,0.023692
1295.2499,0.023926
1297.1136,0.024054
1298.9772,0.024234
1300.8409,0.024480
1302.7046,0.024749
1304.5682,0.025042
1306.4319,0.025288
1308.2956,0.025491
1310.1592,0.025808
1312.0229,0.026153
1313.8866,0.026270
1315.7503,0.026402
1317.6139,0.026533
1319.4776,0.026489
1321.3413,0.026360
1323.2049,0.026354
1325.0686,0.026341
1326.9323,0.026342
1328.7959,0.026608
1330.6596,0.026892
1332.5233,0.027002
1334.3869,0.027188
1336.2506,0.027520
1338.1143,0.027903
1339.9780,0.028030
1341.8416,0.027996
1343.7053,0.028086
1345.5690,0.028259
1347.4326,0.028418
1349.2963,0.028614
1351.1600,0.028819
1353.0236,0.029150
1354.8873,0.029594
1356.7510,0.029937
1358.6146,0.030294
1360.4783,0.030903
1362.3420,0.031458
1364.2056,0.031693
1366.0693,0.031894
1367.9330,0.032270
1369.7967,0.032672
1371.6603,0.033044
1373.5240,0.033457
1375.3877,0.033666
1377.2513,0.033638
1379.1150,0.033760
1380.9787,0.034099
1382.8423,0.034328
1384.7060,0.034651
1386.5697,0.035166
1388.4333,0.035534
1390.2970,0.035757
1392.1607,0.036363
1394.0244,0.037188
1395.8880,0.037662
1397.7517,0.037925
1399.6154,0.038160
1401.4790,0.038517
1403.3427,0.039001
1405.2064,0.039504
1407.0700,0.039688
1408.9337,0.039975
1410.7974,0.040211
1412.6610,0.040346
1414.5247,0.040294
1416.3884,0.040518
1418.2520,0.040890
1420.1157,0.040592
1421.9794,0.040007
1423.8431,0.039647
1425.7067,0.039361
1427.5704,0.039026
1429.4341,0.038736
1431.2977,0.038234
1433.1614,0.037794
1435.0251,0.037856
1436.8887,0.037588
1438.7524,0.036693
1440.6161,0.036030
1442.4797,0.035828
1444.3434,0.035585
1446.2071,0.035435
1448.0707,0.035021
1449.9344,0.034442
1451.7981,0.033959
1453.6618,0.033875
1455.5254,0.034214
1457.3891,0.034016
1459.2528,0.032256
1461.1164,0.031034
1462.9801,0.030762
1464.8438,0.030558
1466.7074,0.029797
1468.5711,0.028966
1470.4348,0.028747
1472.2984,0.028488
1474.1621,0.027889
1476.0258,0.027012
1477.8895,0.026305
1479.7531,0.025888
1481.6168,0.025596
1483.4805,0.025317
1485.3441,0.025165
1487.2078,0.025499
1489.0715,0.025921
1490.9351,0.025554
1492.7988,0.024930
1494.6625,0.024918
1496.5261,0.025508
1498.3898,0.025621
1500.2535,0.025184
1502.1171,0.025009
1503.9808,0.025449
1505.8445,0.026454
1507.7082,0.026948
1509.5718,0.026149
1511.4355,0.025762
1513.2992,0.025961
1515.1628,0.026311
1517.0265,0.026604
1518.8902,0.026694
1520.7538,0.026757
1522.6175,0.026567
1524.4812,0.026048
1526.3448,0.026050
1528.2085,0.025800
1530.0722,0.025497
1531.9359,0.025857
1533.7995,0.026197
1535.6632,0.025766
1537.5269,0.025598
1539.3905,0.026830
1541.2542,0.027040
1543.1179,0.025883
1544.9815,0.025244
1546.8452,0.024988
1548.7089,0.024811
1550.5725,0.024843
1552.4362,0.024552
1554.2999,0.024382
1556.1635,0.024842
1558.0272,0.026078
1559.8909,0.026315
1561.7546,0.024304
1563.6182,0.023677
1565.4819,0.023961
1567.3456,0.024367
1569.2092,0.024779
1571.0729,0.024701
1572.9366,0.024623
1574.8002,0.025384
1576.6639,0.025972
1578.5276,0.025675
1580.3912,0.025596
1582.2549,0.025947
1584.1186,0.026355
1585.9822,0.026647
1587.8459,0.026982
1589.7096,0.027319
1591.5733,0.027505
1593.4369,0.027860
1595.3006,0.028230
1597.1643,0.028469
1599.0279,0.028640
1600.8916,0.028777
1602.7553,0.028896
1604.6189,0.029050
1606.4826,0.029372
1608.3463,0.029634
1610.2099,0.029580
1612.0736,0.029368
1613.9373,0.029800
1615.8010,0.030436
1617.6646,0.030792
1619.5283,0.030424
1621.3920,0.030400
1623.2556,0.030917
1625.1193,0.030980
1626.9830,0.030933
1628.8466,0.031151
1630.7103,0.030896
1632.5740,0.030944
1634.4376,0.032058
1636.3013,0.032629
1638.1650,0.031442
1640.0286,0.030749
1641.8923,0.030570
1643.7560,0.030814
1645.6197,0.031618
1647.4833,0.031258
1649.3470,0.029964
1651.2107,0.030066
1653.0743,0.031458
1654.9380,0.030094
1656.8017,0.028238
1658.6653,0.027425
1660.5290,0.027135
1662.3927,0.026936
1664.2563,0.026115
1666.1200,0.025246
1667.9837,0.024874
1669.8474,0.024320
1671.7110,0.023276
1673.5747,0.022537
1675.4384,0.022071
1677.3020,0.021183
1679.1657,0.020259
1681.0294,0.019969
1682.8930,0.019930
1684.7567,0.019953
1686.6204,0.018154
1688.4840,0.016670
1690.3477,0.016082
1692.2114,0.015536
1694.0750,0.015030
1695.9387,0.014673
1697.8024,0.014228
1699.6661,0.013494
1701.5297,0.013417
1703.3934,0.012287
1705.2571,0.011619
1707.1207,0.011343
1708.9844,0.010884
1710.8481,0.010522
1712.7117,0.010307
1714.5754,0.010512
1716.4391,0.010589
1718.3027,0.010379
1720.1664,0.010104
1722.0301,0.009499
1723.8937,0.009313
1725.7574,0.009145
1727.6211,0.009008
1729.4848,0.009062
1731.3484,0.009213
1733.2121,0.009207
1735.0758,0.009456
1736.9394,0.008582
1738.8031,0.007927
1740.6668,0.008307
1742.5304,0.008368
1744.3941,0.008066
1746.2578,0.007776
1748.1214,0.007864
1749.9851,0.008136
1751.8488,0.008035
1753.7125,0.007621
1755.5761,0.007128
1757.4398,0.007313
1759.3035,0.007357
1761.1671,0.007283
1763.0308,0.007315
1764.8945,0.006880
1766.7581,0.006690
1768.6218,0.007169
1770.4855,0.007278
1772.3491,0.007305
1774.2128,0.007558
1776.0765,0.007250
1777.9401,0.007216
1779.8038,0.007157
1781.6675,0.007171
1783.5312,0.007058
1785.3948,0.007118
1787.2585,0.007148
1789.1222,0.007472
1790.9858,0.007914
1792.8495,0.008284
1794.7132,0.008016
1796.5768,0.007615
1798.4405,0.007478
1800.3042,0.007491
1802.1678,0.007556
1804.0315,0.007374
1805.8952,0.007213
1807.7589,0.007275
1809.6225,0.007528
1811.4862,0.007494
1813.3499,0.007164
1815.2135,0.007005
1817.0772,0.007144
1818.9409,0.007271
1820.8045,0.007388
1822.6682,0.007407
1824.5319,0.007552
1826.3955,0.007712
1828.2592,0.007612
1830.1229,0.007794
1831.9865,0.007859
1833.8502,0.007607
1835.7139,0.007519
1837.5776,0.007472
1839.4412,0.007526
1841.3049,0.007611
1843.1686,0.007593
1845.0322,0.007690
1846.8959,0.007707
1848.7596,0.007589
1850.6232,0.007506
1852.4869,0.007427
1854.3506,0.007790
1856.2142,0.008114
1858.0779,0.007993
1859.9416,0.007655
1861.8052,0.007689
1863.6689,0.007775
1865.5326,0.007652
1867.3963,0.007839
1869.2599,0.008094
1871.1236,0.007821
1872.9873,0.007799
1874.8509,0.008033
1876.7146,0.008091
1878.5783,0.008036
1880.4419,0.008003
1882.3056,0.008002
1884.1693,0.008069
1886.0329,0.007837
1887.8966,0.008025
1889.7603,0.008409
1891.6240,0.008409
1893.4876,0.008080
1895.3513,0.008058
1897.2150,0.008428
1899.0786,0.008471
1900.9423,0.008375
1902.8060,0.008508
1904.6696,0.008628
1906.5333,0.008577
1908.3970,0.008427
1910.2606,0.008383
1912.1243,0.008371
1913.9880,0.008473
1915.8516,0.008505
1917.7153,0.008653
1919.5790,0.008630
1921.4427,0.008184
1923.3063,0.008357
1925.1700,0.008786
1927.0337,0.008568
1928.8973,0.008015
1930.7610,0.008020
1932.6247,0.008538
1934.4883,0.008803
1936.3520,0.008534
1938.2157,0.008598
1940.0793,0.008970
1941.9430,0.008839
1943.8067,0.008301
1945.6704,0.008337
1947.5340,0.008907
1949.3977,0.008713
1951.2614,0.008545
1953.1250,0.008890
1954.9887,0.008623
1956.8524,0.008653
1958.7160,0.009255
1960.5797,0.009530
1962.4434,0.008904
1964.3070,0.008750
1966.1707,0.009949
1968.0344,0.009941
1969.8980,0.008661
1971.7617,0.007985
1973.6254,0.008790
1975.4891,0.009298
1977.3527,0.009753
1979.2164,0.010300
1981.0801,0.010047
1982.9437,0.009458
1984.8074,0.008619
1986.6711,0.008455
1988.5347,0.009098
1990.3984,0.010036
1992.2621,0.009929
1994.1257,0.009149
1995.9894,0.009497
1997.8531,0.010296
1999.7167,0.009888
2001.5804,0.008981
2003.4441,0.009046
2005.3078,0.009029
2007.1714,0.009269
2009.0351,0.009783
2010.8988,0.009406
2012.7624,0.009040
2014.6261,0.009484
2016.4898,0.010083
2018.3534,0.009715
2020.2171,0.009816
2022.0808,0.010018
2023.9444,0.009660
2025.8081,0.009373
2027.6718,0.009204
2029.5355,0.009208
2031.3991,0.009415
2033.2628,0.009480
2035.1265,0.009171
2036.9901,0.009413
2038.8538,0.009225
2040.7175,0.009375
2042.5811,0.010001
2044.4448,0.009960
2046.3085,0.009772
2048.1721,0.010073
2050.0358,0.010310
2051.8995,0.010335
2053.7631,0.010111
2055.6268,0.009898
2057.4905,0.010143
2059.3542,0.010299
2061.2178,0.010684
2063.0815,0.010795
2064.9452,0.010510
2066.8088,0.010041
2068.6725,0.009695
2070.5362,0.009876
2072.3998,0.009962
2074.2635,0.010249
2076.1272,0.010390
2077.9908,0.010175
2079.8545,0.010225
2081.7182,0.010123
2083.5819,0.010028
2085.4455,0.010176
2087.3092,0.010277
2089.1729,0.010359
2091.0365,0.010592
2092.9002,0.010482
2094.7639,0.010110
2096.6275,0.010645
2098.4912,0.010690
2100.3549,0.010384
2102.2185,0.010505
2104.0822,0.010635
2105.9459,0.010506
2107.8095,0.010529
2109.6732,0.010741
2111.5369,0.010705
2113.4006,0.010313
2115.2642,0.010687
2117.1279,0.011319
2118.9916,0.011142
2120.8552,0.010704
2122.7189,0.010700
2124.5826,0.010663
2126.4462,0.010045
2128.3099,0.009622
2130.1736,0.009337
2132.0372,0.009214
2133.9009,0.009784
2135.7646,0.010057
2137.6282,0.010670
2139.4919,0.011351
2141.3556,0.011143
2143.2193,0.010526
2145.0829,0.010504
2146.9466,0.010501
2148.8103,0.010154
2150.6739,0.010377
2152.5376,0.010825
2154.4013,0.010172
2156.2649,0.009157
2158.1286,0.009150
2159.9923,0.009462
2161.8559,0.010086
2163.7196,0.011288
2165.5833,0.011071
2167.4470,0.010967
2169.3106,0.010592
2171.1743,0.010061
2173.0380,0.010079
2174.9016,0.010570
2176.7653,0.011109
2178.6290,0.011152
2180.4926,0.011062
2182.3563,0.010951
2184.2200,0.012151
2186.0836,0.011925
2187.9473,0.010931
2189.8110,0.011127
2191.6746,0.011363
2193.5383,0.011280
2195.4020,0.011436
2197.2657,0.011358
2199.1293,0.011007
2200.9930,0.011177
2202.8567,0.011261
2204.7203,0.010923
2206.5840,0.010815
2208.4477,0.011491
2210.3113,0.011863
2212.1750,0.011756
2214.0387,0.011700
2215.9023,0.011683
2217.7660,0.011698
2219.6297,0.011665
2221.4934,0.010923
2223.3570,0.010898
2225.2207,0.011712
2227.0844,0.011838
2228.9480,0.011623
2230.8117,0.011709
2232.6754,0.011765
2234.5390,0.011751
2236.4027,0.011558
2238.2664,0.011405
2240.1300,0.011562
2241.9937,0.011948
2243.8574,0.011892
2245.7210,0.011598
2247.5847,0.011758
2249.4484,0.011769
2251.3121,0.011479
2253.1757,0.011599
2255.0394,0.011700
2256.9031,0.011760
2258.7667,0.012110
2260.6304,0.011872
2262.4941,0.011157
2264.3577,0.011445
2266.2214,0.011747
2268.0851,0.011584
2269.9487,0.011582
2271.8124,0.011665
2273.6761,0.011900
2275.5397,0.012283
2277.4034,0.012373
2279.2671,0.012103
2281.1308,0.012010
2282.9944,0.012162
2284.8581,0.012128
2286.7218,0.012135
2288.5854,0.012257
2290.4491,0.012078
2292.3128,0.011724
2294.1764,0.011698
2296.0401,0.011788
2297.9038,0.012134
2299.7674,0.012468
2301.6311,0.012317
2303.4948,0.011985
2305.3585,0.012166
2307.2221,0.012174
2309.0858,0.011915
2310.9495,0.011991
2312.8131,0.012205
2314.6768,0.012325
2316.5405,0.012299
2318.4041,0.012350
2320.2678,0.012463
2322.1315,0.012663
2323.9951,0.012958
2325.8588,0.012772
2327.7225,0.012276
2329.5861,0.011890
2331.4498,0.011956
2333.3135,0.012163
2335.1772,0.012066
2337.0408,0.012153
2338.9045,0.012451
2340.7682,0.012439
2342.6318,0.012279
2344.4955,0.012148
2346.3592,0.012070
2348.2228,0.011556
2350.0865,0.011091
2351.9502,0.011540
2353.8138,0.012016
2355.6775,0.012113
2357.5412,0.012514
2359.4049,0.012938
2361.2685,0.012388
2363.1322,0.012081
2364.9959,0.012542
2366.8595,0.012735
2368.7232,0.012483
2370.5869,0.012562
2372.4505,0.012679
2374.3142,0.012375
2376.1779,0.011954
2378.0415,0.011771
2379.9052,0.011889
2381.7689,0.012009
2383.6325,0.011905
2385.4962,0.011963
2387.3599,0.012109
2389.2236,0.012066
2391.0872,0.012108
2392.9509,0.012146
2394.8146,0.012198
2396.6782,0.012280
2398.5419,0.012390
2400.4056,0.012577
2402.2692,0.012667
2404.1329,0.012452
2405.9966,0.012280
2407.8602,0.012491
2409.7239,0.012857
2411.5876,0.012848
2413.4512,0.012555
2415.3149,0.012593
2417.1786,0.012595
2419.0423,0.012417
2420.9059,0.012475
2422.7696,0.012872
2424.6333,0.013322
2426.4969,0.013421
2428.3606,0.013324
2430.2243,0.013193
2432.0879,0.013197
2433.9516,0.012924
2435.8153,0.012503
2437.6789,0.012924
2439.5426,0.013234
2441.4063,0.013056
2443.2700,0.013424
2445.1336,0.013435
2446.9973,0.013075
2448.8610,0.012981
2450.7246,0.012960
2452.5883,0.013094
2454.4520,0.013166
2456.3156,0.013115
2458.1793,0.013316
2460.0430,0.013603
2461.9066,0.013657
2463.7703,0.013128
2465.6340,0.013006
2467.4976,0.013335
2469.3613,0.013137
2471.2250,0.012869
2473.0887,0.013062
2474.9523,0.013504
2476.8160,0.013789
2478.6797,0.013881
2480.5433,0.013682
2482.4070,0.013287
2484.2707,0.012942
2486.1343,0.013436
2487.9980,0.014061
2489.8617,0.013786
2491.7253,0.013528
2493.5890,0.013630
2495.4527,0.013856
2497.3164,0.013992
2499.1800,0.014101
2501.0437,0.014134
2502.9074,0.014235
2504.7710,0.014173
2506.6347,0.013933
2508.4984,0.014151
2510.3620,0.014621
2512.2257,0.014689
2514.0894,0.014339
2515.9530,0.014138
2517.8167,0.014301
2519.6804,0.014111
2521.5440,0.014042
2523.4077,0.014552
2525.2714,0.014560
2527.1351,0.014079
2528.9987,0.014203
2530.8624,0.014564
2532.7261,0.014874
2534.5897,0.014704
2536.4534,0.014303
2538.3171,0.014263
2540.1807,0.014075
2542.0444,0.014164
2543.9081,0.014617
2545.7717,0.014901
2547.6354,0.014829
2549.4991,0.014703
2551.3627,0.014670
2553.2264,0.014600
2555.0901,0.014680
2556.9538,0.014779
2558.8174,0.014498
2560.6811,0.014216
2562.5448,0.014645
2564.4084,0.015117
2566.2721,0.014927
2568.1358,0.014651
2569.9994,0.014786
2571.8631,0.015008
2573.7268,0.014839
2575.5904,0.014842
2577.4541,0.014950
2579.3178,0.014822
2581.1815,0.014842
2583.0451,0.014916
2584.9088,0.014981
2586.7725,0.015094
2588.6361,0.015473
2590.4998,0.015590
2592.3635,0.015191
2594.2271,0.015026
2596.0908,0.014942
2597.9545,0.014745
2599.8181,0.015093
2601.6818,0.015498
2603.5455,0.015411
2605.4091,0.015388
2607.2728,0.015399
2609.1365,0.015313
2611.0002,0.015396
2612.8638,0.015447
2614.7275,0.015482
2616.5912,0.015706
2618.4548,0.015780
2620.3185,0.015673
2622.1822,0.015597
2624.0458,0.015389
2625.9095,0.015393
2627.7732,0.015438
2629.6368,0.015557
2631.5005,0.015845
2633.3642,0.015755
2635.2279,0.015519
2637.0915,0.015582
2638.9552,0.015662
2640.8189,0.015743
2642.6825,0.015937
2644.5462,0.015972
2646.4099,0.015815
2648.2735,0.015959
2650.1372,0.016223
2652.0009,0.016243
2653.8645,0.015907
2655.7282,0.015772
2657.5919,0.016034
2659.4555,0.016027
2661.3192,0.015876
2663.1829,0.016042
2665.0466,0.016075
2666.9102,0.015968
2668.7739,0.016048
2670.6376,0.016111
2672.5012,0.016012
2674.3649,0.015841
2676.2286,0.015858
2678.0922,0.015977
2679.9559,0.016037
2681.8196,0.016133
2683.6832,0.016363
2685.5469,0.016551
2687.4106,0.016463
2689.2742,0.016463
2691.1379,0.016522
2693.0016,0.016506
2694.8653,0.016547
2696.7289,0.016555
2698.5926,0.016514
2700.4563,0.016575
2702.3199,0.016648
2704.1836,0.016697
2706.0473,0.016858
2707.9109,0.017026
2709.7746,0.017189
2711.6383,0.017005
2713.5019,0.016656
2715.3656,0.016954
2717.2293,0.017214
2719.0930,0.017004
2720.9566,0.016957
2722.8203,0.016995
2724.6840,0.016983
2726.5476,0.016908
2728.4113,0.016893
2730.2750,0.017269
2732.1386,0.017544
2734.0023,0.017353
2735.8660,0.017176
2737.7296,0.017468
2739.5933,0.017819
2741.4570,0.017811
2743.3206,0.017550
2745.1843,0.017473
2747.0480,0.017624
2748.9117,0.017546
2750.7753,0.017424
2752.6390,0.017436
2754.5027,0.017441
2756.3663,0.017623
2758.2300,0.017761
2760.0937,0.017914
2761.9573,0.018275
2763.8210,0.018196
2765.6847,0.017832
2767.5483,0.017991
2769.4120,0.018192
2771.2757,0.018247
2773.1394,0.018283
2775.0030,0.018209
2776.8667,0.018163
2778.7304,0.018359
2780.5940,0.018670
2782.4577,0.018711
2784.3214,0.018722
2786.1850,0.018689
2788.0487,0.018580
2789.9124,0.018895
2791.7760,0.019141
2793.6397,0.019266
2795.5034,0.019404
2797.3670,0.019148
2799.2307,0.018881
2801.0944,0.018944
2802.9581,0.018919
2804.8217,0.018886
2806.6854,0.019021
2808.5491,0.019463
2810.4127,0.019741
2812.2764,0.019551
2814.1401,0.019531
2816.0037,0.020005
2817.8674,0.020382
2819.7311,0.020107
2821.5947,0.019937
2823.4584,0.020272
2825.3221,0.020568
2827.1857,0.020853
2829.0494,0.020962
2830.9131,0.020749
2832.7768,0.020728
2834.6404,0.021090
2836.5041,0.021382
2838.3678,0.021477
2840.2314,0.021691
2842.0951,0.021927
2843.9588,0.021861
2845.8224,0.022166
2847.6861,0.022736
2849.5498,0.022949
2851.4134,0.022967
2853.2771,0.023075
2855.1408,0.023174
2857.0045,0.022961
2858.8681,0.022715
2860.7318,0.022982
2862.5955,0.023639
2864.4591,0.023860
2866.3228,0.023522
2868.1865,0.023575
2870.0501,0.023965
2871.9138,0.024076
2873.7775,0.024135
2875.6411,0.024207
2877.5048,0.024050
2879.3685,0.024053
2881.2321,0.024186
2883.0958,0.024042
2884.9595,0.024056
2886.8232,0.024388
2888.6868,0.024479
2890.5505,0.024450
2892.4142,0.024478
2894.2778,0.024500
2896.1415,0.024565
2898.0052,0.024707
2899.8688,0.024917
2901.7325,0.024851
2903.5962,0.024573
2905.4598,0.024549
2907.3235,0.024691
2909.1872,0.024999
2911.0509,0.024954
2912.9145,0.024410
2914.7782,0.024468
2916.6419,0.025102
2918.5055,0.025339
2920.3692,0.025256
2922.2329,0.025376
2924.0965,0.025648
2925.9602,0.025467
2927.8239,0.025085
2929.6875,0.025044
2931.5512,0.024725
2933.4149,0.024744
2935.2785,0.024990
2937.1422,0.024551
2939.0059,0.023785
2940.8696,0.023306
2942.7332,0.023430
2944.5969,0.023320
2946.4606,0.022993
2948.3242,0.023263
2950.1879,0.023638
2952.0516,0.023633
2953.9152,0.023232
2955.7789,0.022773
2957.6426,0.022631
2959.5062,0.022934
2961.3699,0.023257
2963.2336,0.023226
2965.0972,0.023130
2966.9609,0.022833
2968.8246,0.022366
2970.6883,0.021900
2972.5519,0.022009
2974.4156,0.022156
2976.2793,0.021977
2978.1429,0.022037
2980.0066,0.021872
2981.8703,0.021607
2983.7339,0.022005
2985.5976,0.022319
2987.4613,0.021796
2989.3249,0.021259
2991.1886,0.021586
2993.0523,0.021873
2994.9160,0.021517
2996.7796,0.021425
2998.6433,0.021619
3000.5070,0.021989
3002.3706,0.022237
3004.2343,0.022109
3006.0980,0.021747
3007.9616,0.021696
3009.8253,0.021845
3011.6890,0.021903
3013.5526,0.022078
3015.4163,0.022241
3017.2800,0.022199
3019.1436,0.022332
3021.0073,0.022538
3022.8710,0.022797
3024.7347,0.022834
3026.5983,0.022851
3028.4620,0.023038
3030.3257,0.023137
3032.1893,0.023281
3034.0530,0.023560
3035.9167,0.023720
3037.7803,0.023793
3039.6440,0.023368
3041.5077,0.023353
3043.3713,0.023770
3045.2350,0.023770
3047.0987,0.023982
3048.9624,0.024324
3050.8260,0.024410
3052.6897,0.024142
3054.5534,0.024465
3056.4170,0.024845
3058.2807,0.024561
3060.1444,0.024707
3062.0080,0.025093
3063.8717,0.025013
3065.7354,0.025177
3067.5990,0.025731
3069.4627,0.025511
3071.3264,0.024966
3073.1900,0.025275
3075.0537,0.025159
3076.9174,0.024900
3078.7811,0.025334
3080.6447,0.025932
3082.5084,0.026247
3084.3721,0.026099
3086.2357,0.025937
3088.0994,0.025731
3089.9631,0.025963
3091.8267,0.026465
3093.6904,0.026492
3095.5541,0.026365
3097.4177,0.026566
3099.2814,0.027222
3101.1451,0.027420
3103.0087,0.027426
3104.8724,0.027644
3106.7361,0.027838
3108.5998,0.027708
3110.4634,0.027164
3112.3271,0.027277
3114.1908,0.027965
3116.0544,0.028094
3117.9181,0.028015
3119.7818,0.028122
3121.6454,0.028113
3123.5091,0.028442
3125.3728,0.029320
3127.2364,0.028955
3129.1001,0.028004
3130.9638,0.028034
3132.8275,0.028833
3134.6911,0.029536
3136.5548,0.030107
3138.4185,0.029951
3140.2821,0.028867
3142.1458,0.028645
3144.0095,0.029353
3145.8731,0.029384
3147.7368,0.029439
3149.6005,0.029792
3151.4641,0.029858
3153.3278,0.030126
3155.1915,0.030605
3157.0551,0.031200
3158.9188,0.031197
3160.7825,0.030488
3162.6462,0.031009
3164.5098,0.031369
3166.3735,0.031213
3168.2372,0.030973
3170.1008,0.031569
3171.9645,0.032352
3173.8282,0.031926
3175.6918,0.031802
3177.5555,0.032035
3179.4192,0.031776
3181.2828,0.031483
3183.1465,0.031462
3185.0102,0.032093
3186.8739,0.033168
3188.7375,0.032865
3190.6012,0.032062
3192.4649,0.032715
3194.3285,0.033083
3196.1922,0.032358
3198.0559,0.032305
3199.9195,0.032805
3201.7832,0.032671
3203.6469,0.032099
3205.5105,0.032305
3207.3742,0.032773
3209.2379,0.033029
3211.1015,0.032910
3212.9652,0.032478
3214.8289,0.033258
3216.6926,0.033640
3218.5562,0.033459
3220.4199,0.034871
3222.2836,0.035413
3224.1472,0.034531
3226.0109,0.034237
3227.8746,0.034334
3229.7382,0.034303
3231.6019,0.034311
3233.4656,0.034202
3235.3292,0.034356
3237.1929,0.033771
3239.0566,0.033846
3240.9202,0.034781
3242.7839,0.034654
3244.6476,0.035084
3246.5113,0.035426
3248.3749,0.035006
3250.2386,0.034941
3252.1023,0.035038
3253.9659,0.034787
3255.8296,0.034625
3257.6933,0.034317
3259.5569,0.034286
3261.4206,0.034572
3263.2843,0.035092
3265.1479,0.035510
3267.0116,0.035846
3268.8753,0.035997
3270.7390,0.036223
3272.6026,0.035820
3274.4663,0.035323
3276.3300,0.035456
3278.1936,0.035285
3280.0573,0.034527
3281.9210,0.034520
3283.7846,0.035150
3285.6483,0.035266
3287.5120,0.035549
3289.3756,0.035658
3291.2393,0.034712
3293.1030,0.034352
3294.9666,0.035492
3296.8303,0.036040
3298.6940,0.035473
3300.5577,0.034693
3302.4213,0.034527
3304.2850,0.035088
3306.1487,0.035273
3308.0123,0.035167
3309.8760,0.034812
3311.7397,0.034492
3313.6033,0.034419
3315.4670,0.034492
3317.3307,0.034632
3319.1943,0.034677
3321.0580,0.034253
3322.9217,0.034075
3324.7854,0.034289
3326.6490,0.034556
3328.5127,0.034686
3330.3764,0.034463
3332.2400,0.034789
3334.1037,0.034559
3335.9674,0.033643
3337.8310,0.033553
3339.6947,0.033734
3341.5584,0.034177
3343.4220,0.034255
3345.2857,0.033496
3347.1494,0.033126
3349.0130,0.033245
3350.8767,0.032798
3352.7404,0.032318
3354.6041,0.032107
3356.4677,0.032013
3358.3314,0.032738
3360.1951,0.033091
3362.0587,0.033420
3363.9224,0.033139
3365.7861,0.032101
3367.6497,0.032040
3369.5134,0.031874
3371.3771,0.031478
3373.2407,0.032355
3375.1044,0.032023
3376.9681,0.031041
3378.8317,0.031896
3380.6954,0.031639
3382.5591,0.030360
3384.4228,0.031701
3386.2864,0.032659
3388.1501,0.031065
3390.0138,0.030050
3391.8774,0.029600
3393.7411,0.029109
3395.6048,0.030325
3397.4684,0.031324
3399.3321,0.030098
3401.1958,0.028499
3403.0594,0.028341
3404.9231,0.029129
3406.7868,0.029425
3408.6505,0.028952
3410.5141,0.029331
3412.3778,0.030389
3414.2415,0.029445
3416.1051,0.027582
3417.9688,0.027595
3419.8325,0.028872
3421.6961,0.029107
3423.5598,0.027758
3425.4235,0.025745
3427.2871,0.026089
3429.1508,0.027345
3431.0145,0.027120
3432.8781,0.027069
3434.7418,0.026269
3436.6055,0.025877
3438.4692,0.027021
3440.3328,0.027145
3442.1965,0.026898
3444.0602,0.025692
3445.9238,0.023813
3447.7875,0.024621
3449.6512,0.026039
3451.5148,0.024958
3453.3785,0.024784
3455.2422,0.025358
3457.1058,0.024550
3458.9695,0.023536
3460.8332,0.023868
3462.6969,0.023372
3464.5605,0.024009
3466.4242,0.024966
3468.2879,0.023996
3470.1515,0.021090
3472.0152,0.020805
3473.8789,0.021965
3475.7425,0.022588
3477.6062,0.022197
3479.4699,0.022930
3481.3335,0.023492
3483.1972,0.021370
3485.0609,0.020087
3486.9245,0.021167
3488.7882,0.022391
3490.6519,0.020973
3492.5156,0.021075
3494.3792,0.021621
3496.2429,0.020120
3498.1066,0.020750
3499.9702,0.022878
3501.8339,0.022561
3503.6976,0.021014
3505.5612,0.019989
3507.4249,0.019313
3509.2886,0.018954
3511.1522,0.018120
3513.0159,0.018146
3514.8796,0.019237
3516.7432,0.018697
3518.6069,0.017709
3520.4706,0.018429
3522.3343,0.017362
3524.1979,0.016447
3526.0616,0.018312
3527.9253,0.019854
3529.7889,0.018208
3531.6526,0.017114
3533.5163,0.017140
3535.3799,0.017290
3537.2436,0.016152
3539.1073,0.014683
3540.9709,0.014597
3542.8346,0.016692
3544.6983,0.017085
3546.5620,0.016138
3548.4256,0.016792
3550.2893,0.016234
3552.1530,0.014984
3554.0166,0.016184
3555.8803,0.015358
3557.7440,0.013922
3559.6076,0.013362
3561.4713,0.012503
3563.3350,0.012732
3565.1986,0.013817
3567.0623,0.013799
3568.9260,0.014305
3570.7896,0.014235
3572.6533,0.012657
3574.5170,0.012465
3576.3807,0.012624
3578.2443,0.012646
3580.1080,0.012763
3581.9717,0.011718
3583.8353,0.011489
3585.6990,0.011918
3587.5627,0.013597
3589.4263,0.013734
3591.2900,0.011985
3593.1537,0.010468
3595.0173,0.010095
3596.8810,0.009934
3598.7447,0.011079
3600.6084,0.010830
3602.4720,0.010285
3604.3357,0.010099
3606.1994,0.009545
3608.0630,0.008869
3609.9267,0.009435
3611.7904,0.008690
3613.6540,0.008364
3615.5177,0.009303
3617.3814,0.009427
3619.2450,0.008452
3621.1087,0.008075
3622.9724,0.008331
3624.8360,0.008181
3626.6997,0.007792
3628.5634,0.008410
3630.4271,0.009117
3632.2907,0.008350
3634.1544,0.007062
3636.0181,0.006878
3637.8817,0.006605
3639.7454,0.006977
3641.6091,0.006533
3643.4727,0.005651
3645.3364,0.004911
3647.2001,0.005099
3649.0637,0.006829
3650.9274,0.006871
3652.7911,0.006250
3654.6547,0.005899
3656.5184,0.005757
3658.3821,0.005988
3660.2458,0.005272
3662.1094,0.004615
3663.9731,0.004545
3665.8368,0.004474
3667.7004,0.003941
3669.5641,0.003231
3671.4278,0.004063
3673.2914,0.004924
3675.1551,0.004394
3677.0188,0.005684
3678.8824,0.005523
3680.7461,0.004644
3682.6098,0.004694
3684.4735,0.003368
3686.3371,0.003337
3688.2008,0.003753
3690.0645,0.004804
3691.9281,0.005253
3693.7918,0.004095
3695.6555,0.003507
3697.5191,0.003665
3699.3828,0.004060
3701.2465,0.003683
3703.1101,0.003381
3704.9738,0.002927
3706.8375,0.002479
3708.7011,0.002228
3710.5648,0.003382
3712.4285,0.004638
3714.2922,0.004747
3716.1558,0.004206
3718.0195,0.003263
3719.8832,0.002612
3721.7468,0.002345
3723.6105,0.002972
3725.4742,0.004247
3727.3378,0.004075
3729.2015,0.003323
3731.0652,0.003029
3732.9288,0.002498
3734.7925,0.002564
3736.6562,0.003812
3738.5199,0.004136
3740.3835,0.003073
3742.2472,0.002453
3744.1109,0.003013
3745.9745,0.003128
3747.8382,0.003466
3749.7019,0.003604
3751.5655,0.003138
3753.4292,0.003269
3755.2929,0.004728
3757.1565,0.003788
3759.0202,0.003543
3760.8839,0.003531
3762.7475,0.003024
3764.6112,0.002861
3766.4749,0.003429
3768.3386,0.004192
3770.2022,0.003921
3772.0659,0.003306
3773.9296,0.003144
3775.7932,0.003012
3777.6569,0.003250
3779.5206,0.003822
3781.3842,0.003606
3783.2479,0.003758
3785.1116,0.004230
3786.9752,0.004030
3788.8389,0.003294
3790.7026,0.002836
3792.5662,0.002908
3794.4299,0.002848
3796.2936,0.002653
3798.1573,0.003265
3800.0209,0.003761
3801.8846,0.003559
3803.7483,0.004246
3805.6119,0.004326
3807.4756,0.003824
3809.3393,0.003521
3811.2029,0.002984
3813.0666,0.002676
3814.9303,0.002955
3816.7939,0.002672
3818.6576,0.003332
3820.5213,0.003658
3822.3850,0.003954
3824.2486,0.004695
3826.1123,0.003773
3827.9760,0.003229
3829.8396,0.003556
3831.7033,0.002603
3833.5670,0.002662
3835.4306,0.002979
3837.2943,0.003757
3839.1580,0.004360
3841.0216,0.004674
3842.8853,0.004584
3844.7490,0.004004
3846.6126,0.003398
3848.4763,0.003077
3850.3400,0.002777
3852.2037,0.003982
3854.0673,0.005801
3855.9310,0.005881
3857.7947,0.004301
3859.6583,0.003294
3861.5220,0.003463
3863.3857,0.004368
3865.2493,0.004296
3867.1130,0.004119
3868.9767,0.004544
3870.8403,0.005148
3872.7040,0.005226
3874.5677,0.003911
3876.4314,0.002754
3878.2950,0.002102
3880.1587,0.002719
3882.0224,0.003440
3883.8860,0.003854
3885.7497,0.003928
3887.6134,0.004426
3889.4770,0.004369
3891.3407,0.003858
3893.2044,0.004248
3895.0680,0.003927
3896.9317,0.003506
3898.7954,0.003111
3900.6590,0.003738
3902.5227,0.004806
3904.3864,0.005561
3906.2501,0.005359
3908.1137,0.004260
3909.9774,0.003505
3911.8411,0.003383
3913.7047,0.003928
3915.5684,0.004581
3917.4321,0.004976
3919.2957,0.005229
3921.1594,0.004257
3923.0231,0.003521
3924.8867,0.003522
3926.7504,0.003200
3928.6141,0.003180
3930.4777,0.003385
3932.3414,0.003891
3934.2051,0.004352
3936.0688,0.004171
3937.9324,0.003278
3939.7961,0.003081
3941.6598,0.003505
3943.5234,0.003224
3945.3871,0.003470
3947.2508,0.004777
3949.1144,0.005276
3950.9781,0.004976
3952.8418,0.004308
3954.7054,0.003805
3956.5691,0.003820
3958.4328,0.004679
3960.2965,0.005005
3962.1601,0.003942
3964.0238,0.003770
3965.8875,0.003743
3967.7511,0.003679
3969.6148,0.003791
3971.4785,0.004367
3973.3421,0.004319
3975.2058,0.003457
3977.0695,0.003048
3978.9331,0.003294
3980.7968,0.004104
3982.6605,0.004687
3984.5241,0.004340
3986.3878,0.003787
3988.2515,0.003811
3990.1152,0.003946
3991.9788,0.004542
3993.8425,0.004495
3995.7062,0.003718
3997.5698,0.003457
3999.4335,0.004279
4001.2972,0.004204
4003.1608,0.003330
4005.0245,0.003010
4006.8882,0.003379
4008.7518,0.003860
4010.6155,0.004100
4012.4792,0.003747
4014.3429,0.003200
4016.2065,0.003174
4018.0702,0.003762
4019.9339,0.003914
4021.7975,0.003762
4023.6612,0.003731
4025.5249,0.003767
4027.3885,0.003534
4029.2522,0.003372
4031.1159,0.004006
4032.9795,0.004572
4034.8432,0.004167
4036.7069,0.003497
4038.5705,0.003104
4040.4342,0.003032
4042.2979,0.003096
4044.1616,0.003066
4046.0252,0.003560
4047.8889,0.003918
4049.7526,0.004125
4051.6162,0.004068
4053.4799,0.003502
4055.3436,0.003559
4057.2072,0.004084
4059.0709,0.004253
4060.9346,0.004290
4062.7982,0.003453
4064.6619,0.002670
4066.5256,0.003043
4068.3892,0.003463
4070.2529,0.003594
4072.1166,0.003869
4073.9803,0.004213
4075.8439,0.003495
4077.7076,0.003882
4079.5713,0.004756
4081.4349,0.004698
4083.2986,0.003844
4085.1623,0.003140
4087.0259,0.002867
4088.8896,0.002767
4090.7533,0.003434
4092.6169,0.003879
4094.4806,0.004137
4096.3443,0.004539
4098.2080,0.004418
4100.0716,0.003810
4101.9353,0.003534
4103.7990,0.003561
4105.6626,0.003155
4107.5263,0.003447
4109.3900,0.003813
4111.2536,0.003480
4113.1173,0.003526
4114.9810,0.003969
4116.8446,0.004493
4118.7083,0.004199
4120.5720,0.003334
4122.4356,0.002827
4124.2993,0.003277
4126.1630,0.003644
4128.0267,0.003347
4129.8903,0.003488
4131.7540,0.004163
4133.6177,0.004174
4135.4813,0.003855
4137.3450,0.003483
4139.2087,0.003492
4141.0723,0.003900
4142.9360,0.004278
4144.7997,0.004447
4146.6633,0.003960
4148.5270,0.002960
4150.3907,0.002288
4152.2544,0.002884
4154.1180,0.003777
4155.9817,0.003992
4157.8454,0.004616
4159.7090,0.004520
4161.5727,0.003233
4163.4364,0.002621
4165.3000,0.003124
4167.1637,0.004048
4169.0274,0.004460
4170.8910,0.003527
4172.7547,0.003039
4174.6184,0.003717
4176.4820,0.003607
4178.3457,0.003629
4180.2094,0.004080
4182.0731,0.003466
4183.9367,0.002667
4185.8004,0.002850
4187.6641,0.004342
4189.5277,0.004434
4191.3914,0.003491
4193.2551,0.003641
4195.1187,0.004318
4196.9824,0.004387
4198.8461,0.004136
4200.7097,0.004248
4202.5734,0.004585
4204.4371,0.004236
4206.3007,0.003802
4208.1644,0.003661
4210.0281,0.004192
4211.8918,0.004362
4213.7554,0.003960
4215.6191,0.004242
4217.4828,0.004121
4219.3464,0.003821
4221.2101,0.004494
4223.0738,0.004455
4224.9374,0.004038
4226.8011,0.003780
4228.6648,0.003863
4230.5284,0.004159
4232.3921,0.004301
4234.2558,0.004395
4236.1195,0.003931
4237.9831,0.003528
4239.8468,0.003682
4241.7105,0.004195
4243.5741,0.004236
4245.4378,0.004612
4247.3015,0.004946
4249.1651,0.004464
4251.0288,0.003989
4252.8925,0.004213
4254.7561,0.004386
4256.6198,0.004124
4258.4835,0.003815
4260.3471,0.004659
4262.2108,0.004754
4264.0745,0.003036
4265.9382,0.002227
4267.8018,0.003694
4269.6655,0.004827
4271.5292,0.004309
4273.3928,0.004178
4275.2565,0.004478
4277.1202,0.004119
4278.9838,0.004296
4280.8475,0.005038
4282.7112,0.005385
4284.5748,0.005310
4286.4385,0.004801
4288.3022,0.004102
4290.1659,0.004086
4292.0295,0.004393
4293.8932,0.004203
4295.7569,0.004069
4297.6205,0.004235
4299.4842,0.004262
4301.3479,0.004527
4303.2115,0.004595
4305.0752,0.004219
4306.9389,0.004212
4308.8025,0.004893
4310.6662,0.004764
4312.5299,0.004812
4314.3935,0.005235
4316.2572,0.004974
4318.1209,0.004849
4319.9846,0.004990
4321.8482,0.004309
4323.7119,0.003273
4325.5756,0.002969
4327.4392,0.003160
4329.3029,0.004281
4331.1666,0.005357
4333.0302,0.005216
4334.8939,0.005080
4336.7576,0.004825
4338.6212,0.004439
4340.4849,0.004597
4342.3486,0.004601
4344.2122,0.004736
4346.0759,0.005056
4347.9396,0.004575
4349.8033,0.003807
4351.6669,0.004314
4353.5306,0.005247
4355.3943,0.005530
4357.2579,0.005609
4359.1216,0.005232
4360.9853,0.005224
4362.8489,0.005040
4364.7126,0.004091
4366.5763,0.004653
4368.4399,0.005291
4370.3036,0.004721
4372.1673,0.004533
4374.0310,0.004160
4375.8946,0.004108
4377.7583,0.004702
4379.6220,0.005060
4381.4856,0.005284
4383.3493,0.004998
4385.2130,0.005108
4387.0766,0.005438
4388.9403,0.005298
4390.8040,0.005544
4392.6676,0.005174
4394.5313,0.004315
4396.3950,0.003752
4398.2586,0.004013
4400.1223,0.004492
4401.9860,0.004882
4403.8497,0.004957
4405.7133,0.005012
4407.5770,0.005181
4409.4407,0.005116
4411.3043,0.004476
4413.1680,0.004276
4415.0317,0.005033
4416.8953,0.005198
4418.7590,0.004652
4420.6227,0.004676
4422.4863,0.004591
4424.3500,0.004451
4426.2137,0.005380
4428.0774,0.006059
4429.9410,0.005752
4431.8047,0.005485
4433.6684,0.004904
4435.5320,0.004201
4437.3957,0.004272
4439.2594,0.004677
4441.1230,0.006012
4442.9867,0.006612
4444.8504,0.005189
4446.7140,0.003907
4448.5777,0.003847
4450.4414,0.004812
4452.3050,0.005788
4454.1687,0.005849
4456.0324,0.005631
4457.8961,0.005786
4459.7597,0.006007
4461.6234,0.005586
4463.4871,0.004432
4465.3507,0.003851
4467.2144,0.004711
4469.0781,0.005184
4470.9417,0.005120
4472.8054,0.005545
4474.6691,0.005228
4476.5327,0.004951
4478.3964,0.005328
4480.2601,0.005174
4482.1237,0.004892
4483.9874,0.005206
4485.8511,0.005265
4487.7148,0.005441
4489.5784,0.005601
4491.4421,0.005148
4493.3058,0.004863
4495.1694,0.005204
4497.0331,0.005565
4498.8968,0.005677
4500.7604,0.005491
