Wavenumber,Intensity
650.4205,0.101659
652.2841,0.101028
654.1478,0.100764
656.0115,0.099582
657.8751,0.098783
659.7388,0.099678
661.6025,0.099734
663.4661,0.098728
665.3298,0.099402
667.1935,0.100604
669.0571,0.099813
670.9208,0.098394
672.7845,0.098338
674.6481,0.098819
676.5118,0.097614
678.3755,0.095962
680.2392,0.095869
682.1028,0.095512
683.9665,0.094480
685.8302,0.093277
687.6938,0.091500
689.5575,0.089810
691.4212,0.088344
693.2848,0.087282
695.1485,0.087068
697.0122,0.086952
698.8758,0.086325
700.7395,0.086173
702.6032,0.086386
704.4669,0.087096
706.3305,0.088114
708.1942,0.088945
710.0579,0.089972
711.9215,0.091008
713.7852,0.091060
715.6489,0.089520
717.5125,0.088307
719.3762,0.088628
721.2399,0.089047
723.1035,0.089120
724.9672,0.089362
726.8309,0.089267
728.6945,0.088970
730.5582,0.088191
732.4219,0.087663
734.2856,0.087334
736.1492,0.086630
738.0129,0.086600
739.8766,0.087054
741.7402,0.086825
743.6039,0.086198
745.4676,0.086150
747.3312,0.086193
749.1949,0.085817
751.0586,0.085560
752.9222,0.085578
754.7859,0.085501
756.6496,0.085245
758.5132,0.085010
760.3769,0.084869
762.2406,0.084717
764.1043,0.084036
765.9679,0.083208
767.8316,0.082632
769.6953,0.082365
771.5589,0.081942
773.4226,0.081474
775.2863,0.081065
777.1499,0.080384
779.0136,0.079998
780.8773,0.079958
782.7409,0.079789
784.6046,0.079626
786.4683,0.079699
788.3320,0.079764
790.1956,0.079340
792.0593,0.078855
793.9230,0.078644
795.7866,0.078113
797.6503,0.077812
799.5140,0.077907
801.3776,0.077817
803.2413,0.077975
805.1050,0.078212
806.9686,0.078292
808.8323,0.078554
810.6960,0.078945
812.5596,0.079152
814.4233,0.079491
816.2870,0.080064
818.1507,0.080387
820.0143,0.080500
821.8780,0.080524
823.7417,0.080572
825.6053,0.080620
827.4690,0.080807
829.3327,0.081208
831.1963,0.081725
833.0600,0.082620
834.9237,0.083712
836.7873,0.084793
838.6510,0.085936
840.5147,0.087250
842.3784,0.088718
844.2420,0.090403
846.1057,0.092305
847.9694,0.094065
849.8330,0.095537
851.6967,0.097087
853.5604,0.099170
855.4240,0.101260
857.2877,0.103153
859.1514,0.105439
861.0150,0.107811
862.8787,0.109855
864.7424,0.112157
866.6060,0.114878
868.4697,0.117789
870.3334,0.120496
872.1971,0.122135
874.0607,0.122556
875.9244,0.122207
877.7881,0.121504
879.6517,0.120744
881.5154,0.120248
883.3791,0.120013
885.2427,0.119783
887.1064,0.120329
888.9701,0.122119
890.8337,0.124414
892.6974,0.126606
894.5611,0.128821
896.4247,0.131161
898.2884,0.133319
900.1521,0.135365
902.0158,0.137266
903.8794,0.139130
905.7431,0.141324
907.6068,0.143445
909.4704,0.144822
911.3341,0.146241
913.1978,0.147955
915.0614,0.149425
916.9251,0.150847
918.7888,0.152258
920.6524,0.153554
922.5161,0.154906
924.3798,0.156293
926.2435,0.157651
928.1071,0.159059
929.9708,0.160611
931.8345,0.162085
933.6981,0.163436
935.5618,0.164834
937.4255,0.166478
939.2891,0.168190
941.1528,0.169734
943.0165,0.171150
944.8801,0.172481
946.7438,0.173813
948.6075,0.174941
950.4711,0.175697
952.3348,0.176325
954.1985,0.176666
956.0622,0.176642
957.9258,0.176501
959.7895,0.176371
961.6532,0.176259
963.5168,0.176120
965.3805,0.175832
967.2442,0.175508
969.1078,0.175362
970.9715,0.175296
972.8352,0.175358
974.6988,0.175503
976.5625,0.175574
978.4262,0.175754
980.2899,0.175880
982.1535,0.175648
984.0172,0.175242
985.8809,0.174803
987.7445,0.174127
989.6082,0.173196
991.4719,0.172049
993.3355,0.170545
995.1992,0.168715
997.0629,0.166759
998.9265,0.164648
1000.7902,0.162371
1002.6539,0.159971
1004.5175,0.157419
1006.3812,0.154827
1008.2449,0.152068
1010.1086,0.149157
1011.9722,0.146308
1013.8359,0.143328
1015.6996,0.140257
1017.5632,0.137207
1019.4269,0.134075
1021.2906,0.131029
1023.1542,0.127965
1025.0179,0.124896
1026.8816,0.122088
1028.7452,0.119378
1030.6089,0.116711
1032.4726,0.113993
1034.3362,0.111342
1036.1999,0.108921
1038.0636,0.106540
1039.9273,0.104160
1041.7909,0.101900
1043.6546,0.099724
1045.5183,0.097613
1047.3819,0.095608
1049.2456,0.093692
1051.1093,0.091866
1052.9729,0.090123
1054.8366,0.088543
1056.7003,0.087038
1058.5639,0.085484
1060.4276,0.084043
1062.2913,0.082751
1064.1550,0.081509
1066.0186,0.080306
1067.8823,0.079242
1069.7460,0.078239
1071.6096,0.077150
1073.4733,0.076081
1075.3370,0.075174
1077.2006,0.074311
1079.0643,0.073331
1080.9280,0.072368
1082.7916,0.071391
1084.6553,0.070322
1086.5190,0.069308
1088.3826,0.068256
1090.2463,0.067079
1092.1100,0.065904
1093.9737,0.064730
1095.8373,0.063555
1097.7010,0.062319
1099.5647,0.061058
1101.4283,0.059812
1103.2920,0.058525
1105.1557,0.057393
1107.0193,0.056297
1108.8830,0.055067
1110.7467,0.053891
1112.6103,0.052742
1114.4740,0.051611
1116.3377,0.050451
1118.2014,0.049362
1120.0650,0.048481
1121.9287,0.047612
1123.7924,0.046678
1125.6560,0.045779
1127.5197,0.044986
1129.3834,0.044244
1131.2470,0.043574
1133.1107,0.042986
1134.9744,0.042383
1136.8380,0.041748
1138.7017,0.041193
1140.5654,0.040688
1142.4290,0.040108
1144.2927,0.039546
1146.1564,0.039010
1148.0201,0.038375
1149.8837,0.037745
1151.7474,0.037175
1153.6111,0.036535
1155.4747,0.035825
1157.3384,0.035121
1159.2021,0.034396
1161.0657,0.033667
1162.9294,0.032923
1164.7931,0.032051
1166.6567,0.031201
1168.5204,0.030435
1170.3841,0.029529
1172.2477,0.028544
1174.1114,0.027617
1175.9751,0.026798
1177.8388,0.026049
1179.7024,0.025183
1181.5661,0.024338
1183.4298,0.023648
1185.2934,0.022880
1187.1571,0.022020
1189.0208,0.021259
1190.8844,0.020620
1192.7481,0.019953
1194.6118,0.019265
1196.4754,0.018659
1198.3391,0.018051
1200.2028,0.017493
1202.0665,0.017002
1203.9301,0.016458
1205.7938,0.015939
1207.6575,0.015431
1209.5211,0.014974
1211.3848,0.014645
1213.2485,0.014317
1215.1121,0.014043
1216.9758,0.013871
1218.8395,0.013597
1220.7031,0.013303
1222.5668,0.013090
1224.4305,0.012938
1226.2941,0.012854
1228.1578,0.012715
1230.0215,0.012615
1231.8852,0.012553
1233.7488,0.012409
1235.6125,0.012305
1237.4762,0.012228
1239.3398,0.012133
1241.2035,0.012066
1243.0672,0.012024
1244.9308,0.011922
1246.7945,0.011824
1248.6582,0.011816
1250.5218,0.011841
1252.3855,0.011819
1254.2492,0.011837
1256.1129,0.011852
1257.9765,0.011742
1259.8402,0.011637
1261.7039,0.011647
1263.5675,0.011694
1265.4312,0.011701
1267.2949,0.011671
1269.1585,0.011645
1271.0222,0.011686
1272.8859,0.011836
1274.7495,0.011873
1276.6132,0.011776
1278.4769,0.011804
1280.3405,0.011951
1282.2042,0.012088
1284.0679,0.012064
1285.9316,0.012016
1287.7952,0.012083
1289.6589,0.012199
1291.5226,0.012301
1293.3862,0.012446
1295.2499,0.012516
1297.1136,0.012607
1298.9772,0.012791
1300.8409,0.012855
1302.7046,0.012894
1304.5682,0.012994
1306.4319,0.013093
1308.2956,0.013227
1310.1592,0.013385
1312.0229,0.013467
1313.8866,0.013553
1315.7503,0.013690
1317.6139,0.013744
1319.4776,0.013750
1321.3413,0.013879
1323.2049,0.013992
1325.0686,0.014134
1326.9323,0.014344
1328.7959,0.014459
1330.6596,0.014541
1332.5233,0.014691
1334.3869,0.014791
1336.2506,0.014935
1338.1143,0.015148
1339.9780,0.015260
1341.8416,0.015456
1343.7053,0.015692
1345.5690,0.015846
1347.4326,0.016061
1349.2963,0.016217
1351.1600,0.016404
1353.0236,0.016658
1354.8873,0.016803
1356.7510,0.017041
1358.6146,0.017479
1360.4783,0.017775
1362.3420,0.017679
1364.2056,0.017853
1366.0693,0.018488
1367.9330,0.018852
1369.7967,0.019121
1371.6603,0.019497
1373.5240,0.019585
1375.3877,0.019739
1377.2513,0.020158
1379.1150,0.020464
1380.9787,0.020824
1382.8423,0.021199
1384.7060,0.021601
1386.5697,0.021673
1388.4333,0.021685
1390.2970,0.022357
1392.1607,0.022882
1394.0244,0.022757
1395.8880,0.022770
1397.7517,0.023144
1399.6154,0.023026
1401.4790,0.023366
1403.3427,0.023757
1405.2064,0.023571
1407.0700,0.023719
1408.9337,0.024092
1410.7974,0.024124
1412.6610,0.024101
1414.5247,0.024373
1416.3884,0.024564
1418.2520,0.023760
1420.1157,0.022898
1421.9794,0.023554
1423.8431,0.023566
1425.7067,0.023313
1427.5704,0.023466
1429.4341,0.023081
1431.2977,0.022845
1433.1614,0.023249
1435.0251,0.023144
1436.8887,0.021830
1438.7524,0.021868
1440.6161,0.022438
1442.4797,0.022391
1444.3434,0.022373
1446.2071,0.022123
1448.0707,0.021611
1449.9344,0.021514
1451.7981,0.021739
1453.6618,0.021908
1455.5254,0.021353
1457.3891,0.019027
1459.2528,0.019133
1461.1164,0.020354
1462.9801,0.020540
1464.8438,0.019594
1466.7074,0.019218
1468.5711,0.019654
1470.4348,0.019613
1472.2984,0.018438
1474.1621,0.017760
1476.0258,0.017819
1477.8895,0.017763
1479.7531,0.017771
1481.6168,0.017544
1483.4805,0.017574
1485.3441,0.017634
1487.2078,0.017282
1489.0715,0.016656
1490.9351,0.016133
1492.7988,0.016623
1494.6625,0.016933
1496.5261,0.016085
1498.3898,0.015494
1500.2535,0.015584
1502.1171,0.016138
1503.9808,0.016671
1505.8445,0.015721
1507.7082,0.013954
1509.5718,0.014626
1511.4355,0.015193
1513.2992,0.015422
1515.1628,0.015401
1517.0265,0.014852
1518.8902,0.014969
1520.7538,0.014665
1522.6175,0.013928
1524.4812,0.014238
1526.3448,0.014121
1528.2085,0.014246
1530.0722,0.014581
1531.9359,0.014481
1533.7995,0.013838
1535.6632,0.014141
1537.5269,0.014651
1539.3905,0.013536
1541.2542,0.012424
1543.1179,0.012682
1544.9815,0.012769
1546.8452,0.013176
1548.7089,0.013356
1550.5725,0.013030
1552.4362,0.013060
1554.2999,0.013127
1556.1635,0.013427
1558.0272,0.012998
1559.8909,0.011130
1561.7546,0.011662
1563.6182,0.012417
1565.4819,0.012630
1567.3456,0.012761
1569.2092,0.012509
1571.0729,0.012350
1572.9366,0.012978
1574.8002,0.013140
1576.6639,0.012408
1578.5276,0.012473
1580.3912,0.012950
1582.2549,0.013243
1584.1186,0.013470
1585.9822,0.013477
1587.8459,0.013558
1589.7096,0.013658
1591.5733,0.013844
1593.4369,0.014012
1595.3006,0.014074
1597.1643,0.014095
1599.0279,0.014355
1600.8916,0.014625
1602.7553,0.014858
1604.6189,0.015265
1606.4826,0.015733
1608.3463,0.015814
1610.2099,0.015894
1612.0736,0.016440
1613.9373,0.017312
1615.8010,0.017511
1617.6646,0.017273
1619.5283,0.018126
1621.3920,0.018763
1623.2556,0.018498
1625.1193,0.018484
1626.9830,0.018530
1628.8466,0.018331
1630.7103,0.018799
1632.5740,0.019486
1634.4376,0.019259
1636.3013,0.018138
1638.1650,0.018344
1640.0286,0.018832
1641.8923,0.019147
1643.7560,0.019399
1645.6197,0.019032
1647.4833,0.018214
1649.3470,0.018707
1651.2107,0.019360
1653.0743,0.017503
1654.9380,0.016464
1656.8017,0.017616
1658.6653,0.017957
1660.5290,0.017883
1662.3927,0.017389
1664.2563,0.017094
1666.1200,0.017341
1667.9837,0.017001
1669.8474,0.015836
1671.7110,0.015710
1673.5747,0.015955
1675.4384,0.015230
1677.3020,0.014895
1679.1657,0.015151
1681.0294,0.015280
1682.8930,0.014707
1684.7567,0.012801
1686.6204,0.012694
1688.4840,0.012921
1690.3477,0.012511
1692.2114,0.012506
1694.0750,0.012345
1695.9387,0.011426
1697.8024,0.011173
1699.6661,0.010549
1701.5297,0.009721
1703.3934,0.010018
1705.2571,0.009697
1707.1207,0.009416
1708.9844,0.009429
1710.8481,0.009571
1712.7117,0.009615
1714.5754,0.009295
1716.4391,0.008844
1718.3027,0.008246
1720.1664,0.008344
1722.0301,0.008617
1723.8937,0.008785
1725.7574,0.008888
1727.6211,0.008833
1729.4848,0.008812
1731.3484,0.008859
1733.2121,0.008331
1735.0758,0.007655
1736.9394,0.007924
1738.8031,0.008050
1740.6668,0.008033
1742.5304,0.007975
1744.3941,0.007982
1746.2578,0.008020
1748.1214,0.008015
1749.9851,0.007846
1751.8488,0.007592
1753.7125,0.007670
1755.5761,0.007789
1757.4398,0.007817
1759.3035,0.007822
1761.1671,0.007636
1763.0308,0.007558
1764.8945,0.007713
1766.7581,0.007706
1768.6218,0.007756
1770.4855,0.007885
1772.3491,0.007581
1774.2128,0.007547
1776.0765,0.007723
1777.9401,0.007809
1779.8038,0.007739
1781.6675,0.007703
1783.5312,0.007798
1785.3948,0.007923
1787.2585,0.008218
1789.1222,0.008401
1790.9858,0.008275
1792.8495,0.007892
1794.7132,0.007888
1796.5768,0.008108
1798.4405,0.008081
1800.3042,0.007962
1802.1678,0.007900
1804.0315,0.007936
1805.8952,0.007886
1807.7589,0.007853
1809.6225,0.007873
1811.4862,0.007971
1813.3499,0.007887
1815.2135,0.007811
1817.0772,0.007687
1818.9409,0.007628
1820.8045,0.007887
1822.6682,0.008009
1824.5319,0.007688
1826.3955,0.007541
1828.2592,0.007632
1830.1229,0.007586
1831.9865,0.007599
1833.8502,0.007793
1835.7139,0.008005
1837.5776,0.007992
1839.4412,0.008027
1841.3049,0.008142
1843.1686,0.008058
1845.0322,0.007888
1846.8959,0.007788
1848.7596,0.007786
1850.6232,0.007936
1852.4869,0.008054
1854.3506,0.008090
1856.2142,0.007986
1858.0779,0.007787
1859.9416,0.007918
1861.8052,0.008396
1863.6689,0.008442
1865.5326,0.008154
1867.3963,0.008295
1869.2599,0.008133
1871.1236,0.007788
1872.9873,0.007947
1874.8509,0.008150
1876.7146,0.008166
1878.5783,0.008009
1880.4419,0.007977
1882.3056,0.008123
1884.1693,0.008079
1886.0329,0.008023
1887.8966,0.007969
1889.7603,0.007713
1891.6240,0.007937
1893.4876,0.008272
1895.3513,0.008395
1897.2150,0.008235
1899.0786,0.007895
1900.9423,0.008026
1902.8060,0.008300
1904.6696,0.008126
1906.5333,0.008149
1908.3970,0.008469
1910.2606,0.008654
1912.1243,0.008360
1913.9880,0.007932
1915.8516,0.007890
1917.7153,0.007726
1919.5790,0.007865
1921.4427,0.007908
1923.3063,0.007935
1925.1700,0.008234
1927.0337,0.008199
1928.8973,0.008195
1930.7610,0.008469
1932.6247,0.008508
1934.4883,0.008144
1936.3520,0.007811
1938.2157,0.007997
1940.0793,0.008077
1941.9430,0.007968
1943.8067,0.007759
1945.6704,0.007738
1947.5340,0.007909
1949.3977,0.007620
1951.2614,0.007346
1953.1250,0.007641
1954.9887,0.008130
1956.8524,0.008247
1958.7160,0.007744
1960.5797,0.007893
1962.4434,0.008231
1964.3070,0.007814
1966.1707,0.008261
1968.0344,0.008847
1969.8980,0.008641
1971.7617,0.007869
1973.6254,0.007573
1975.4891,0.008212
1977.3527,0.008553
1979.2164,0.008517
1981.0801,0.007778
1982.9437,0.008058
1984.8074,0.009180
1986.6711,0.009041
1988.5347,0.008634
1990.3984,0.008545
1992.2621,0.008235
1994.1257,0.008352
1995.9894,0.008399
1997.8531,0.008144
1999.7167,0.008095
2001.5804,0.008478
2003.4441,0.009007
2005.3078,0.008971
2007.1714,0.008676
2009.0351,0.008342
2010.8988,0.008601
2012.7624,0.008973
2014.6261,0.008887
2016.4898,0.008354
2018.3534,0.007991
2020.2171,0.008109
2022.0808,0.007720
2023.9444,0.007583
2025.8081,0.007672
2027.6718,0.008079
2029.5355,0.008806
2031.3991,0.009000
2033.2628,0.008889
2035.1265,0.008947
2036.9901,0.008953
2038.8538,0.009112
2040.7175,0.008885
2042.5811,0.008500
2044.4448,0.008587
2046.3085,0.008986
2048.1721,0.009169
2050.0358,0.009133
2051.8995,0.009236
2053.7631,0.008908
2055.6268,0.008794
2057.4905,0.008743
2059.3542,0.009222
2061.2178,0.009471
2063.0815,0.009197
2064.9452,0.009169
2066.8088,0.009413
2068.6725,0.009303
2070.5362,0.009216
2072.3998,0.009110
2074.2635,0.008893
2076.1272,0.009158
2077.9908,0.009375
2079.8545,0.009222
2081.7182,0.009414
2083.5819,0.009478
2085.4455,0.009139
2087.3092,0.008983
2089.1729,0.009091
2091.0365,0.009601
2092.9002,0.009280
2094.7639,0.008522
2096.6275,0.008586
2098.4912,0.009038
2100.3549,0.009730
2102.2185,0.009881
2104.0822,0.009412
2105.9459,0.009100
2107.8095,0.009264
2109.6732,0.008985
2111.5369,0.009110
2113.4006,0.009652
2115.2642,0.009578
2117.1279,0.009639
2118.9916,0.009773
2120.8552,0.009436
2122.7189,0.009132
2124.5826,0.009331
2126.4462,0.009313
2128.3099,0.008891
2130.1736,0.008352
2132.0372,0.008000
2133.9009,0.008455
2135.7646,0.008461
2137.6282,0.008482
2139.4919,0.009057
2141.3556,0.009039
2143.2193,0.008947
2145.0829,0.008931
2146.9466,0.007950
2148.8103,0.007388
2150.6739,0.008562
2152.5376,0.008871
2154.4013,0.008205
2156.2649,0.007134
2158.1286,0.007312
2159.9923,0.009318
2161.8559,0.010387
2163.7196,0.010105
2165.5833,0.009662
2167.4470,0.009602
2169.3106,0.010220
2171.1743,0.009770
2173.0380,0.009312
2174.9016,0.009334
2176.7653,0.009021
2178.6290,0.008954
2180.4926,0.008826
2182.3563,0.008592
2184.2200,0.009214
2186.0836,0.009958
2187.9473,0.009609
2189.8110,0.009492
2191.6746,0.009584
2193.5383,0.009367
2195.4020,0.009209
2197.2657,0.009246
2199.1293,0.009021
2200.9930,0.009831
2202.8567,0.010629
2204.7203,0.009873
2206.5840,0.009157
2208.4477,0.009192
2210.3113,0.010225
2212.1750,0.010256
2214.0387,0.009871
2215.9023,0.009727
2217.7660,0.009744
2219.6297,0.009674
2221.4934,0.009224
2223.3570,0.009075
2225.2207,0.009309
2227.0844,0.010074
2228.9480,0.010566
2230.8117,0.010228
2232.6754,0.009921
2234.5390,0.010209
2236.4027,0.010491
2238.2664,0.010774
2240.1300,0.010058
2241.9937,0.009286
2243.8574,0.009747
2245.7210,0.010592
2247.5847,0.010218
2249.4484,0.009428
2251.3121,0.009456
2253.1757,0.009768
2255.0394,0.009773
2256.9031,0.009796
2258.7667,0.009905
2260.6304,0.009735
2262.4941,0.009337
2264.3577,0.009519
2266.2214,0.010538
2268.0851,0.011161
2269.9487,0.010441
2271.8124,0.010003
2273.6761,0.010332
2275.5397,0.010353
2277.4034,0.010582
2279.2671,0.010898
2281.1308,0.010584
2282.9944,0.010438
2284.8581,0.010393
2286.7218,0.010637
2288.5854,0.010773
2290.4491,0.010408
2292.3128,0.010205
2294.1764,0.010543
2296.0401,0.010796
2297.9038,0.010491
2299.7674,0.010422
2301.6311,0.010394
2303.4948,0.010213
2305.3585,0.010593
2307.2221,0.010997
2309.0858,0.010809
2310.9495,0.010804
2312.8131,0.010969
2314.6768,0.011021
2316.5405,0.010992
2318.4041,0.010977
2320.2678,0.011182
2322.1315,0.011445
2323.9951,0.011403
2325.8588,0.010819
2327.7225,0.010600
2329.5861,0.010706
2331.4498,0.010709
2333.3135,0.010729
2335.1772,0.011011
2337.0408,0.011355
2338.9045,0.011060
2340.7682,0.010775
2342.6318,0.010683
2344.4955,0.010396
2346.3592,0.010001
2348.2228,0.010079
2350.0865,0.010575
2351.9502,0.011083
2353.8138,0.010966
2355.6775,0.011193
2357.5412,0.011628
2359.4049,0.011451
2361.2685,0.011190
2363.1322,0.010964
2364.9959,0.010965
2366.8595,0.011280
2368.7232,0.010926
2370.5869,0.010479
2372.4505,0.010315
2374.3142,0.010330
2376.1779,0.010256
2378.0415,0.010071
2379.9052,0.009833
2381.7689,0.009812
2383.6325,0.010030
2385.4962,0.010147
2387.3599,0.009973
2389.2236,0.009732
2391.0872,0.009542
2392.9509,0.009935
2394.8146,0.010571
2396.6782,0.010680
2398.5419,0.010333
2400.4056,0.010002
2402.2692,0.010158
2404.1329,0.010138
2405.9966,0.009682
2407.8602,0.009665
2409.7239,0.010003
2411.5876,0.009964
2413.4512,0.009842
2415.3149,0.010004
2417.1786,0.010061
2419.0423,0.010365
2420.9059,0.010672
2422.7696,0.010355
2424.6333,0.009904
2426.4969,0.010075
2428.3606,0.010158
2430.2243,0.010150
2432.0879,0.010490
2433.9516,0.010459
2435.8153,0.010235
2437.6789,0.010273
2439.5426,0.010244
2441.4063,0.010479
2443.2700,0.010612
2445.1336,0.010709
2446.9973,0.010718
2448.8610,0.010142
2450.7246,0.009820
2452.5883,0.009983
2454.4520,0.010379
2456.3156,0.010558
2458.1793,0.010590
2460.0430,0.010499
2461.9066,0.010491
2463.7703,0.010507
2465.6340,0.010264
2467.4976,0.010071
2469.3613,0.010245
2471.2250,0.010365
2473.0887,0.010158
2474.9523,0.010511
2476.8160,0.010659
2478.6797,0.010218
2480.5433,0.010452
2482.4070,0.010658
2484.2707,0.010499
2486.1343,0.010336
2487.9980,0.010098
2489.8617,0.010301
2491.7253,0.010560
2493.5890,0.010292
2495.4527,0.010298
2497.3164,0.010504
2499.1800,0.010654
2501.0437,0.010858
2502.9074,0.011034
2504.7710,0.011002
2506.6347,0.010829
2508.4984,0.010744
2510.3620,0.010574
2512.2257,0.010812
2514.0894,0.011108
2515.9530,0.011179
2517.8167,0.010910
2519.6804,0.010650
2521.5440,0.010813
2523.4077,0.010635
2525.2714,0.010338
2527.1351,0.010160
2528.9987,0.010333
2530.8624,0.010784
2532.7261,0.010728
2534.5897,0.010678
2536.4534,0.010318
2538.3171,0.010352
2540.1807,0.010639
2542.0444,0.010704
2543.9081,0.010609
2545.7717,0.010628
2547.6354,0.010551
2549.4991,0.010294
2551.3627,0.010267
2553.2264,0.010339
2555.0901,0.010206
2556.9538,0.010222
2558.8174,0.010579
2560.6811,0.010624
2562.5448,0.010748
2564.4084,0.010872
2566.2721,0.010735
2568.1358,0.010597
2569.9994,0.010530
2571.8631,0.010611
2573.7268,0.010698
2575.5904,0.010389
2577.4541,0.010246
2579.3178,0.010610
2581.1815,0.011015
2583.0451,0.010988
2584.9088,0.011127
2586.7725,0.010870
2588.6361,0.010413
2590.4998,0.010347
2592.3635,0.010277
2594.2271,0.010068
2596.0908,0.010362
2597.9545,0.010813
2599.8181,0.010852
2601.6818,0.011028
2603.5455,0.011123
2605.4091,0.010803
2607.2728,0.010481
2609.1365,0.010831
2611.0002,0.011196
2612.8638,0.011127
2614.7275,0.010875
2616.5912,0.010768
2618.4548,0.010891
2620.3185,0.010867
2622.1822,0.010691
2624.0458,0.010659
2625.9095,0.010650
2627.7732,0.010697
2629.6368,0.010972
2631.5005,0.011111
2633.3642,0.011059
2635.2279,0.011273
2637.0915,0.011306
2638.9552,0.011210
2640.8189,0.011040
2642.6825,0.010743
2644.5462,0.010706
2646.4099,0.010756
2648.2735,0.010808
2650.1372,0.011037
2652.0009,0.011372
2653.8645,0.011531
2655.7282,0.011327
2657.5919,0.010831
2659.4555,0.010733
2661.3192,0.011028
2663.1829,0.011016
2665.0466,0.010794
2666.9102,0.010632
2668.7739,0.010609
2670.6376,0.010715
2672.5012,0.010975
2674.3649,0.011099
2676.2286,0.011072
2678.0922,0.011054
2679.9559,0.011214
2681.8196,0.011175
2683.6832,0.010718
2685.5469,0.010655
2687.4106,0.010814
2689.2742,0.010822
2691.1379,0.011014
2693.0016,0.011036
2694.8653,0.010872
2696.7289,0.010843
2698.5926,0.011088
2700.4563,0.011171
2702.3199,0.011101
2704.1836,0.010968
2706.0473,0.010833
2707.9109,0.010985
2709.7746,0.011176
2711.6383,0.011271
2713.5019,0.011197
2715.3656,0.011164
2717.2293,0.011386
2719.0930,0.011481
2720.9566,0.011227
2722.8203,0.011015
2724.6840,0.011057
2726.5476,0.011335
2728.4113,0.011438
2730.2750,0.011564
2732.1386,0.011306
2734.0023,0.011044
2735.8660,0.010986
2737.7296,0.011076
2739.5933,0.011393
2741.4570,0.011539
2743.3206,0.011222
2745.1843,0.011272
2747.0480,0.011657
2748.9117,0.011549
2750.7753,0.011344
2752.6390,0.011289
2754.5027,0.011318
2756.3663,0.011415
2758.2300,0.011339
2760.0937,0.011508
2761.9573,0.011858
2763.8210,0.011721
2765.6847,0.011463
2767.5483,0.011519
2769.4120,0.011531
2771.2757,0.011323
2773.1394,0.011339
2775.0030,0.011597
2776.8667,0.011614
2778.7304,0.011653
2780.5940,0.011763
2782.4577,0.011736
2784.3214,0.011524
2786.1850,0.011413
2788.0487,0.011292
2789.9124,0.011293
2791.7760,0.011753
2793.6397,0.012018
2795.5034,0.012089
2797.3670,0.012141
2799.2307,0.011758
2801.0944,0.011590
2802.9581,0.011656
2804.8217,0.011767
2806.6854,0.012064
2808.5491,0.012239
2810.4127,0.012278
2812.2764,0.012261
2814.1401,0.012008
2816.0037,0.011943
2817.8674,0.012057
2819.7311,0.011927
2821.5947,0.011755
2823.4584,0.012034
2825.3221,0.012425
2827.1857,0.012404
2829.0494,0.012298
2830.9131,0.012061
2832.7768,0.011959
2834.6404,0.012139
2836.5041,0.012195
2838.3678,0.012438
2840.2314,0.012491
2842.0951,0.012548
2843.9588,0.013015
2845.8224,0.013122
2847.6861,0.012704
2849.5498,0.012614
2851.4134,0.012880
2853.2771,0.013046
2855.1408,0.013252
2857.0045,0.013270
2858.8681,0.013197
2860.7318,0.013369
2862.5955,0.013324
2864.4591,0.013092
2866.3228,0.013178
2868.1865,0.013339
2870.0501,0.013003
2871.9138,0.013086
2873.7775,0.013297
2875.6411,0.013001
2877.5048,0.013111
2879.3685,0.013550
2881.2321,0.013428
2883.0958,0.012984
2884.9595,0.012826
2886.8232,0.013023
2888.6868,0.013443
2890.5505,0.013486
2892.4142,0.013328
2894.2778,0.013528
2896.1415,0.013383
2898.0052,0.013128
2899.8688,0.013344
2901.7325,0.013646
2903.5962,0.014023
2905.4598,0.014144
2907.3235,0.013730
2909.1872,0.013651
2911.0509,0.013985
2912.9145,0.014082
2914.7782,0.014208
2916.6419,0.014104
2918.5055,0.013915
2920.3692,0.014267
2922.2329,0.014459
2924.0965,0.014145
2925.9602,0.014359
2927.8239,0.014915
2929.6875,0.014511
2931.5512,0.013754
2933.4149,0.014029
2935.2785,0.014471
2937.1422,0.014414
2939.0059,0.014376
2940.8696,0.014244
2942.7332,0.014108
2944.5969,0.014316
2946.4606,0.014567
2948.3242,0.014388
2950.1879,0.014094
2952.0516,0.014278
2953.9152,0.014389
2955.7789,0.014093
2957.6426,0.014117
2959.5062,0.014472
2961.3699,0.014492
2963.2336,0.014017
2965.0972,0.013880
2966.9609,0.014166
2968.8246,0.014005
2970.6883,0.013747
2972.5519,0.013930
2974.4156,0.014118
2976.2793,0.014092
2978.1429,0.013930
2980.0066,0.013966
2981.8703,0.014448
2983.7339,0.014297
2985.5976,0.013777
2987.4613,0.014004
2989.3249,0.014311
2991.1886,0.014396
2993.0523,0.014558
2994.9160,0.014347
2996.7796,0.014287
2998.6433,0.014419
3000.5070,0.014207
3002.3706,0.014149
3004.2343,0.014547
3006.0980,0.014852
3007.9616,0.014608
3009.8253,0.014348
3011.6890,0.014651
3013.5526,0.015077
3015.4163,0.015073
3017.2800,0.014619
3019.1436,0.014307
3021.0073,0.014450
3022.8710,0.014872
3024.7347,0.015000
3026.5983,0.015146
3028.4620,0.015440
3030.3257,0.015354
3032.1893,0.014909
3034.0530,0.014728
3035.9167,0.015276
3037.7803,0.015368
3039.6440,0.015374
3041.5077,0.015895
3043.3713,0.015828
3045.2350,0.015566
3047.0987,0.015842
3048.9624,0.015704
3050.8260,0.015390
3052.6897,0.015854
3054.5534,0.016211
3056.4170,0.016118
3058.2807,0.016278
3060.1444,0.016321
3062.0080,0.016305
3063.8717,0.016459
3065.7354,0.016214
3067.5990,0.015758
3069.4627,0.016032
3071.3264,0.016684
3073.1900,0.016700
3075.0537,0.016484
3076.9174,0.016667
3078.7811,0.016862
3080.6447,0.016990
3082.5084,0.017088
3084.3721,0.017595
3086.2357,0.017920
3088.0994,0.017310
3089.9631,0.017144
3091.8267,0.017717
3093.6904,0.018061
3095.5541,0.018027
3097.4177,0.017976
3099.2814,0.017849
3101.1451,0.018064
3103.0087,0.018413
3104.8724,0.017934
3106.7361,0.017601
3108.5998,0.018072
3110.4634,0.018266
3112.3271,0.018072
3114.1908,0.018022
3116.0544,0.018335
3117.9181,0.018901
3119.7818,0.019278
3121.6454,0.019145
3123.5091,0.018797
3125.3728,0.018957
3127.2364,0.019330
3129.1001,0.019466
3130.9638,0.019178
3132.8275,0.018749
3134.6911,0.019004
3136.5548,0.019525
3138.4185,0.019753
3140.2821,0.019778
3142.1458,0.019907
3144.0095,0.020378
3145.8731,0.020684
3147.7368,0.020364
3149.6005,0.019907
3151.4641,0.020327
3153.3278,0.020912
3155.1915,0.020323
3157.0551,0.019930
3158.9188,0.020885
3160.7825,0.021151
3162.6462,0.020659
3164.5098,0.020919
3166.3735,0.021223
3168.2372,0.021406
3170.1008,0.021400
3171.9645,0.021326
3173.8282,0.021658
3175.6918,0.022025
3177.5555,0.022020
3179.4192,0.021538
3181.2828,0.021401
3183.1465,0.021418
3185.0102,0.021142
3186.8739,0.021680
3188.7375,0.022384
3190.6012,0.022510
3192.4649,0.022633
3194.3285,0.022289
3196.1922,0.022168
3198.0559,0.022845
3199.9195,0.023574
3201.7832,0.023468
3203.6469,0.023243
3205.5105,0.023301
3207.3742,0.022987
3209.2379,0.023098
3211.1015,0.023383
3212.9652,0.023373
3214.8289,0.023258
3216.6926,0.022561
3218.5562,0.022424
3220.4199,0.023473
3222.2836,0.023915
3224.1472,0.023417
3226.0109,0.023217
3227.8746,0.023827
3229.7382,0.024460
3231.6019,0.024132
3233.4656,0.024106
3235.3292,0.024760
3237.1929,0.024489
3239.0566,0.023628
3240.9202,0.023557
3242.7839,0.024074
3244.6476,0.023952
3246.5113,0.023432
3248.3749,0.023525
3250.2386,0.024389
3252.1023,0.024241
3253.9659,0.023197
3255.8296,0.023979
3257.6933,0.024840
3259.5569,0.024286
3261.4206,0.024014
3263.2843,0.024474
3265.1479,0.025057
3267.0116,0.025386
3268.8753,0.025839
3270.7390,0.025505
3272.6026,0.024943
3274.4663,0.025376
3276.3300,0.025633
3278.1936,0.025285
3280.0573,0.025351
3281.9210,0.025616
3283.7846,0.025083
3285.6483,0.024296
3287.5120,0.024148
3289.3756,0.024941
3291.2393,0.024874
3293.1030,0.024481
3294.9666,0.024935
3296.8303,0.025033
3298.6940,0.025002
3300.5577,0.025755
3302.4213,0.025679
3304.2850,0.024759
3306.1487,0.025000
3308.0123,0.024876
3309.8760,0.024645
3311.7397,0.025669
3313.6033,0.025866
3315.4670,0.025290
3317.3307,0.025612
3319.1943,0.025423
3321.0580,0.024890
3322.9217,0.025442
3324.7854,0.025569
3326.6490,0.025947
3328.5127,0.026413
3330.3764,0.026105
3332.2400,0.025523
3334.1037,0.025102
3335.9674,0.025186
3337.8310,0.024990
3339.6947,0.024815
3341.5584,0.024735
3343.4220,0.024650
3345.2857,0.025154
3347.1494,0.026536
3349.0130,0.025991
3350.8767,0.025344
3352.7404,0.026039
3354.6041,0.025350
3356.4677,0.024543
3358.3314,0.024814
3360.1951,0.025612
3362.0587,0.026565
3363.9224,0.026345
3365.7861,0.025620
3367.6497,0.025624
3369.5134,0.026018
3371.3771,0.025485
3373.2407,0.024062
3375.1044,0.024062
3376.9681,0.024970
3378.8317,0.026352
3380.6954,0.026649
3382.5591,0.025905
3384.4228,0.025953
3386.2864,0.025832
3388.1501,0.025531
3390.0138,0.026254
3391.8774,0.026308
3393.7411,0.025925
3395.6048,0.026184
3397.4684,0.025848
3399.3321,0.026099
3401.1958,0.026965
3403.0594,0.026742
3404.9231,0.026267
3406.7868,0.025735
3408.6505,0.025883
3410.5141,0.025667
3412.3778,0.025264
3414.2415,0.024949
3416.1051,0.024375
3417.9688,0.024369
3419.8325,0.024461
3421.6961,0.024326
3423.5598,0.023700
3425.4235,0.022459
3427.2871,0.022081
3429.1508,0.023139
3431.0145,0.024368
3432.8781,0.023863
3434.7418,0.022181
3436.6055,0.021843
3438.4692,0.022314
3440.3328,0.022071
3442.1965,0.022147
3444.0602,0.022254
3445.9238,0.022298
3447.7875,0.021995
3449.6512,0.020894
3451.5148,0.020624
3453.3785,0.020403
3455.2422,0.020691
3457.1058,0.022584
3458.9695,0.022481
3460.8332,0.021633
3462.6969,0.021302
3464.5605,0.021269
3466.4242,0.021559
3468.2879,0.021184
3470.1515,0.020098
3472.0152,0.020439
3473.8789,0.022103
3475.7425,0.021591
3477.6062,0.019579
3479.4699,0.020046
3481.3335,0.021681
3483.1972,0.021382
3485.0609,0.020958
3486.9245,0.022099
3488.7882,0.021568
3490.6519,0.020582
3492.5156,0.021508
3494.3792,0.021847
3496.2429,0.020589
3498.1066,0.020472
3499.9702,0.020617
3501.8339,0.019469
3503.6976,0.018918
3505.5612,0.019973
3507.4249,0.020435
3509.2886,0.019635
3511.1522,0.019700
3513.0159,0.020720
3514.8796,0.020498
3516.7432,0.019496
3518.6069,0.019518
3520.4706,0.019497
3522.3343,0.018661
3524.1979,0.018433
3526.0616,0.020195
3527.9253,0.021593
3529.7889,0.021018
3531.6526,0.020396
3533.5163,0.020333
3535.3799,0.020027
3537.2436,0.019115
3539.1073,0.019178
3540.9709,0.020480
3542.8346,0.019652
3544.6983,0.017970
3546.5620,0.018122
3548.4256,0.018817
3550.2893,0.019031
3552.1530,0.018694
3554.0166,0.018579
3555.8803,0.018660
3557.7440,0.018252
3559.6076,0.017402
3561.4713,0.017173
3563.3350,0.017873
3565.1986,0.018039
3567.0623,0.017440
3568.9260,0.016870
3570.7896,0.016615
3572.6533,0.016665
3574.5170,0.016218
3576.3807,0.016016
3578.2443,0.016071
3580.1080,0.016177
3581.9717,0.015880
3583.8353,0.016392
3585.6990,0.016249
3587.5627,0.015842
3589.4263,0.015567
3591.2900,0.015533
3593.1537,0.016258
3595.0173,0.015699
3596.8810,0.014874
3598.7447,0.015420
3600.6084,0.014784
3602.4720,0.013576
3604.3357,0.013980
3606.1994,0.014702
3608.0630,0.014668
3609.9267,0.014444
3611.7904,0.014607
3613.6540,0.014214
3615.5177,0.013320
3617.3814,0.013230
3619.2450,0.013180
3621.1087,0.012431
3622.9724,0.013038
3624.8360,0.013585
3626.6997,0.012593
3628.5634,0.012504
3630.4271,0.012437
3632.2907,0.010722
3634.1544,0.010862
3636.0181,0.011107
3637.8817,0.011264
3639.7454,0.011441
3641.6091,0.010128
3643.4727,0.009797
3645.3364,0.009879
3647.2001,0.010046
3649.0637,0.009732
3650.9274,0.008485
3652.7911,0.008756
3654.6547,0.009502
3656.5184,0.009559
3658.3821,0.009696
3660.2458,0.010727
3662.1094,0.010519
3663.9731,0.009639
3665.8368,0.009580
3667.7004,0.009811
3669.5641,0.009156
3671.4278,0.007509
3673.2914,0.007233
3675.1551,0.008087
3677.0188,0.008361
3678.8824,0.007560
3680.7461,0.006972
3682.6098,0.006868
3684.4735,0.007027
3686.3371,0.006330
3688.2008,0.005561
3690.0645,0.006052
3691.9281,0.005910
3693.7918,0.005635
3695.6555,0.005647
3697.5191,0.005273
3699.3828,0.005008
3701.2465,0.005035
3703.1101,0.005263
3704.9738,0.005227
3706.8375,0.005534
3708.7011,0.006865
3710.5648,0.007731
3712.4285,0.006952
3714.2922,0.006019
3716.1558,0.006161
3718.0195,0.006862
3719.8832,0.006534
3721.7468,0.006245
3723.6105,0.005771
3725.4742,0.005142
3727.3378,0.004637
3729.2015,0.004463
3731.0652,0.004195
3732.9288,0.004065
3734.7925,0.004002
3736.6562,0.004004
3738.5199,0.004075
3740.3835,0.004198
3742.2472,0.004194
3744.1109,0.004399
3745.9745,0.004219
3747.8382,0.003837
3749.7019,0.003838
3751.5655,0.003419
3753.4292,0.003616
3755.2929,0.003440
3757.1565,0.003266
3759.0202,0.004478
3760.8839,0.004684
3762.7475,0.004041
3764.6112,0.003634
3766.4749,0.003248
3768.3386,0.003346
3770.2022,0.003655
3772.0659,0.003512
3773.9296,0.003958
3775.7932,0.004620
3777.6569,0.004396
3779.5206,0.004284
3781.3842,0.004579
3783.2479,0.004164
3785.1116,0.003250
3786.9752,0.003134
3788.8389,0.003806
3790.7026,0.003769
3792.5662,0.003871
3794.4299,0.003925
3796.2936,0.004007
3798.1573,0.004179
3800.0209,0.003917
3801.8846,0.004049
3803.7483,0.003417
3805.6119,0.003381
3807.4756,0.004625
3809.3393,0.005250
3811.2029,0.004545
3813.0666,0.004266
3814.9303,0.003864
3816.7939,0.003965
3818.6576,0.004335
3820.5213,0.004926
3822.3850,0.004782
3824.2486,0.004427
3826.1123,0.004463
3827.9760,0.003872
3829.8396,0.003508
3831.7033,0.004234
3833.5670,0.004773
3835.4306,0.003632
3837.2943,0.002866
3839.1580,0.003109
3841.0216,0.003120
3842.8853,0.002965
3844.7490,0.003941
3846.6126,0.004659
3848.4763,0.004555
3850.3400,0.004374
3852.2037,0.004274
3854.0673,0.004204
3855.9310,0.004226
3857.7947,0.003989
3859.6583,0.003664
3861.5220,0.004012
3863.3857,0.004276
3865.2493,0.004161
3867.1130,0.003787
3868.9767,0.003986
3870.8403,0.004255
3872.7040,0.004696
3874.5677,0.005401
3876.4314,0.004878
3878.2950,0.004760
3880.1587,0.004683
3882.0224,0.004080
3883.8860,0.004086
3885.7497,0.004791
3887.6134,0.004959
3889.4770,0.004371
3891.3407,0.003934
3893.2044,0.003288
3895.0680,0.003499
3896.9317,0.004575
3898.7954,0.004867
3900.6590,0.004710
3902.5227,0.004573
3904.3864,0.004159
3906.2501,0.003801
3908.1137,0.003978
3909.9774,0.004295
3911.8411,0.004348
3913.7047,0.004777
3915.5684,0.004439
3917.4321,0.003954
3919.2957,0.004173
3921.1594,0.004012
3923.0231,0.004376
3924.8867,0.004626
3926.7504,0.004601
3928.6141,0.004733
3930.4777,0.004800
3932.3414,0.004302
3934.2051,0.004281
3936.0688,0.004734
3937.9324,0.004625
3939.7961,0.003869
3941.6598,0.004125
3943.5234,0.004778
3945.3871,0.004763
3947.2508,0.004536
3949.1144,0.005288
3950.9781,0.005252
3952.8418,0.004174
3954.7054,0.003967
3956.5691,0.003820
3958.4328,0.004322
3960.2965,0.004382
3962.1601,0.004295
3964.0238,0.004642
3965.8875,0.005452
3967.7511,0.005228
3969.6148,0.004842
3971.4785,0.004990
3973.3421,0.004526
3975.2058,0.004929
3977.0695,0.005176
3978.9331,0.004875
3980.7968,0.005031
3982.6605,0.005028
3984.5241,0.004818
3986.3878,0.005189
3988.2515,0.005437
3990.1152,0.004662
3991.9788,0.003990
3993.8425,0.004601
3995.7062,0.004809
3997.5698,0.004373
3999.4335,0.004011
4001.2972,0.003936
4003.1608,0.003885
4005.0245,0.003780
4006.8882,0.004172
4008.7518,0.004616
4010.6155,0.004485
4012.4792,0.004444
4014.3429,0.004267
4016.2065,0.004175
4018.0702,0.004265
4019.9339,0.004778
4021.7975,0.004872
4023.6612,0.004697
4025.5249,0.005449
4027.3885,0.005326
4029.2522,0.004659
4031.1159,0.004470
4032.9795,0.004599
4034.8432,0.004941
4036.7069,0.004740
4038.5705,0.004989
4040.4342,0.004562
4042.2979,0.003891
4044.1616,0.004451
4046.0252,0.004801
4047.8889,0.005086
4049.7526,0.005429
4051.6162,0.004356
4053.4799,0.004003
4055.3436,0.004567
4057.2072,0.004470
4059.0709,0.004238
4060.9346,0.004105
4062.7982,0.003739
4064.6619,0.004070
4066.5256,0.004348
4068.3892,0.004298
4070.2529,0.004806
4072.1166,0.005199
4073.9803,0.004938
4075.8439,0.004319
4077.7076,0.004252
4079.5713,0.005044
4081.4349,0.004802
4083.2986,0.005004
4085.1623,0.004909
4087.0259,0.004781
4088.8896,0.004706
4090.7533,0.004364
4092.6169,0.004509
4094.4806,0.004371
4096.3443,0.004477
4098.2080,0.004145
4100.0716,0.003274
4101.9353,0.003851
4103.7990,0.004225
4105.6626,0.004346
4107.5263,0.004346
4109.3900,0.004285
4111.2536,0.004127
4113.1173,0.004064
4114.9810,0.004321
4116.8446,0.004048
4118.7083,0.003555
4120.5720,0.003641
4122.4356,0.004234
4124.2993,0.004768
4126.1630,0.004818
4128.0267,0.005042
4129.8903,0.005173
4131.7540,0.004372
4133.6177,0.003751
4135.4813,0.004109
4137.3450,0.003903
4139.2087,0.003338
4141.0723,0.003806
4142.9360,0.004022
4144.7997,0.004200
4146.6633,0.004764
4148.5270,0.005118
4150.3907,0.004876
4152.2544,0.003750
4154.1180,0.002976
4155.9817,0.003360
4157.8454,0.004003
4159.7090,0.004175
4161.5727,0.004151
4163.4364,0.004932
4165.3000,0.005065
4167.1637,0.004167
4169.0274,0.004338
4170.8910,0.004621
4172.7547,0.003993
4174.6184,0.003813
4176.4820,0.004093
4178.3457,0.003507
4180.2094,0.004325
4182.0731,0.005423
4183.9367,0.005205
4185.8004,0.004545
4187.6641,0.004015
4189.5277,0.003959
4191.3914,0.004432
4193.2551,0.004619
4195.1187,0.003912
4196.9824,0.003120
4198.8461,0.003278
4200.7097,0.004289
4202.5734,0.005352
4204.4371,0.005577
4206.3007,0.005398
4208.1644,0.004754
4210.0281,0.003690
4211.8918,0.003498
4213.7554,0.005060
4215.6191,0.005259
4217.4828,0.004404
4219.3464,0.004399
4221.2101,0.004686
4223.0738,0.004766
4224.9374,0.004390
4226.8011,0.003811
4228.6648,0.003735
4230.5284,0.004222
4232.3921,0.004496
4234.2558,0.004576
4236.1195,0.005924
4237.9831,0.005397
4239.8468,0.003821
4241.7105,0.003725
4243.5741,0.004398
4245.4378,0.005767
4247.3015,0.005372
4249.1651,0.004273
4251.0288,0.004120
4252.8925,0.004487
4254.7561,0.004785
4256.6198,0.005132
4258.4835,0.004663
4260.3471,0.004190
4262.2108,0.004206
4264.0745,0.004458
4265.9382,0.004772
4267.8018,0.004646
4269.6655,0.004335
4271.5292,0.003949
4273.3928,0.004427
4275.2565,0.004530
4277.1202,0.004074
4278.9838,0.004255
4280.8475,0.004971
4282.7112,0.004739
4284.5748,0.003832
4286.4385,0.003899
4288.3022,0.004571
4290.1659,0.005395
4292.0295,0.005159
4293.8932,0.004361
4295.7569,0.003833
4297.6205,0.004132
4299.4842,0.004458
4301.3479,0.005111
4303.2115,0.005001
4305.0752,0.004417
4306.9389,0.004283
4308.8025,0.004687
4310.6662,0.004832
4312.5299,0.003926
4314.3935,0.003641
4316.2572,0.004473
4318.1209,0.004569
4319.9846,0.004121
4321.8482,0.004566
4323.7119,0.005554
4325.5756,0.005824
4327.4392,0.005004
4329.3029,0.005038
4331.1666,0.005033
4333.0302,0.005132
4334.8939,0.004631
4336.7576,0.004697
4338.6212,0.005381
4340.4849,0.004495
4342.3486,0.003954
4344.2122,0.004161
4346.0759,0.004749
4347.9396,0.004898
4349.8033,0.004634
4351.6669,0.004770
4353.5306,0.004717
4355.3943,0.004542
4357.2579,0.004629
4359.1216,0.004577
4360.9853,0.004655
4362.8489,0.004770
4364.7126,0.004895
4366.5763,0.005244
4368.4399,0.005710
4370.3036,0.005976
4372.1673,0.005362
4374.0310,0.004698
4375.8946,0.004517
4377.7583,0.004726
4379.6220,0.004708
4381.4856,0.004542
4383.3493,0.004276
4385.2130,0.003884
4387.0766,0.003505
4388.9403,0.004360
4390.8040,0.006382
4392.6676,0.006077
4394.5313,0.004689
4396.3950,0.004883
4398.2586,0.004725
4400.1223,0.004108
4401.9860,0.004658
4403.8497,0.005793
4405.7133,0.005476
4407.5770,0.004556
4409.4407,0.004114
4411.3043,0.004372
4413.1680,0.005008
4415.0317,0.004759
4416.8953,0.004990
4418.7590,0.005615
4420.6227,0.005110
4422.4863,0.004171
4424.3500,0.003965
4426.2137,0.004520
4428.0774,0.005386
4429.9410,0.004539
4431.8047,0.003515
4433.6684,0.004273
4435.5320,0.004825
4437.3957,0.004572
4439.2594,0.004977
4441.1230,0.004721
4442.9867,0.004399
4444.8504,0.004200
4446.7140,0.004459
4448.5777,0.004704
4450.4414,0.005088
4452.3050,0.005135
4454.1687,0.004414
4456.0324,0.005394
4457.8961,0.005860
4459.7597,0.004547
4461.6234,0.004768
4463.4871,0.005108
4465.3507,0.005296
4467.2144,0.004977
4469.0781,0.004102
4470.9417,0.003200
4472.8054,0.004105
4474.6691,0.005370
4476.5327,0.004831
4478.3964,0.004386
4480.2601,0.004761
4482.1237,0.005220
4483.9874,0.004798
4485.8511,0.004642
4487.7148,0.005335
4489.5784,0.004610
4491.4421,0.004741
4493.3058,0.005993
4495.1694,0.006407
4497.0331,0.005668
4498.8968,0.004972
4500.7604,0.004771
